Time,Gx,Gy,Gz,Ax,Ay,Az
2019-01-28 21:45:16:4516,-0.396973,0.077316,-0.144104,0,0,0
2019-01-28 21:45:16:4516,-0.396973,0.077316,-0.144104,-0.147995,2.161942,8.830063
2019-01-28 21:45:16:4516,-0.396973,0.077316,-0.144104,-0.092957,2.117676,8.396957
2019-01-28 21:45:16:4516,-0.396973,0.077316,-0.144104,1.004166,1.696533,8.174423
2019-01-28 21:45:16:4516,-0.396973,0.077316,-0.144104,2.259201,1.240707,7.460175
2019-01-28 21:45:16:4516,-0.396973,0.077316,-0.144104,1.639465,1.239517,7.409927
2019-01-28 21:45:16:4516,-0.396973,0.077316,-0.144104,0.347336,1.678589,7.676727
2019-01-28 21:45:16:4516,-0.396973,0.077316,-0.144104,0.460983,1.968124,8.615906
2019-01-28 21:45:16:4516,-0.396973,0.077316,-0.144104,1.049622,1.858047,9.872131
2019-01-28 21:45:16:4516,-0.396973,0.077316,-0.144104,1.749527,1.763535,9.837448
2019-01-28 21:45:16:4516,-0.396973,0.077316,-0.144104,0.709854,2.205017,8.498657
2019-01-28 21:45:16:4516,-0.396973,0.077316,-0.144104,-1.563354,2.646484,8.36824
2019-01-28 21:45:16:4516,-0.396973,0.077316,-0.144104,-1.706909,2.547195,8.770248
2019-01-28 21:45:16:4516,-0.396973,0.077316,-0.144104,-0.49614,2.068619,9.092072
2019-01-28 21:45:16:4516,-0.396973,0.077316,-0.144104,0.246826,1.901123,10.007324
2019-01-28 21:45:16:4516,-0.396973,0.077316,-0.144104,-0.079788,2.120071,10.840027
2019-01-28 21:45:16:4516,-0.396973,0.077316,-0.144104,-1.254669,2.597427,9.916397
2019-01-28 21:45:16:4516,-0.396973,0.077316,-0.144104,-2.768143,3.115479,9.336136
2019-01-28 21:45:16:4516,-0.396973,0.077316,-0.144104,-1.578903,2.877396,9.29068
2019-01-28 21:45:16:4516,-0.396973,0.077316,-0.144104,-0.174316,2.222961,9.272736
2019-01-28 21:45:16:4516,-0.396973,0.077316,-0.144104,0.12001,1.927444,9.484497
2019-01-28 21:45:16:4516,-0.396973,0.077316,-0.144104,-0.078598,1.899933,9.545517
2019-01-28 21:45:16:4516,-0.396973,0.077316,-0.144104,-1.174515,2.13443,8.566849
2019-01-28 21:45:16:4516,-0.396973,0.077316,-0.144104,-1.601639,2.166733,9.562256
2019-01-28 21:45:16:4516,-0.396973,0.077316,-0.144104,-0.918488,1.6427,10.457184
2019-01-28 21:45:16:4516,-0.396973,0.077316,-0.144104,0.419113,1.409393,10.165253
2019-01-28 21:45:16:4516,-0.396973,0.077316,-0.144104,0.481323,1.442902,9.626877
2019-01-28 21:45:16:4516,-0.396973,0.077316,-0.144104,0.080536,1.74559,9.16626
2019-01-28 21:45:16:4516,-0.396973,0.077316,-0.144104,-1.011795,1.920273,9.18779
2019-01-28 21:45:16:4516,-0.396973,0.077316,-0.144104,-0.911301,1.647491,9.544312
2019-01-28 21:45:16:4516,-0.396973,0.077316,-0.144104,0.172653,1.264633,10.018097
2019-01-28 21:45:16:4516,-0.396973,0.077316,-0.144104,0.062592,0.888962,10.759872
2019-01-28 21:45:16:4516,-0.396973,0.077316,-0.144104,-0.834732,0.952377,9.981003
2019-01-28 21:45:16:4516,-0.396973,0.077316,-0.144104,-1.761948,1.192856,9.442627
2019-01-28 21:45:16:4516,-0.396973,0.077316,-0.144104,-1.084778,1.112686,9.172241
2019-01-28 21:45:16:4516,-0.396973,0.077316,-0.144104,0.09848,1.08876,10.382996
2019-01-28 21:45:16:4516,-0.396973,0.077316,-0.144104,-0.320282,1.083984,10.989578
2019-01-28 21:45:16:4516,-0.396973,0.077316,-0.144104,-1.254669,1.774307,9.368454
2019-01-28 21:45:16:4516,-0.396973,0.077316,-0.144104,-1.736832,2.184677,9.569443
2019-01-28 21:45:16:4516,-0.396973,0.077316,-0.144104,-1.308517,1.987274,10.344727
2019-01-28 21:45:16:4516,-0.396973,0.077316,-0.144104,-0.472214,1.640305,10.065948
2019-01-28 21:45:16:4516,-0.396973,0.077316,-0.144104,-0.098938,1.153366,9.070541
2019-01-28 21:45:16:4516,-0.396973,0.077316,-0.144104,0.172653,0.75856,8.204346
2019-01-28 21:45:16:4516,-0.396973,0.077316,-0.144104,0.179825,0.284775,8.916199
2019-01-28 21:45:16:4516,-0.396973,0.077316,-0.144104,-0.102524,0.264435,9.422287
2019-01-28 21:45:16:4516,-0.396973,0.077316,-0.144104,-0.248489,0.630539,9.492874
2019-01-28 21:45:16:4516,-0.396973,0.077316,-0.144104,-0.368134,0.920059,9.814713
2019-01-28 21:45:16:4516,-0.396973,0.077316,-0.144104,-0.006821,1.185669,10.201141
2019-01-28 21:45:16:4516,-0.396973,0.077316,-0.144104,0.069763,1.43692,9.861374
2019-01-28 21:45:16:4516,-0.396973,0.077316,-0.144104,-0.073807,1.430939,10.349503
2019-01-28 21:45:16:4516,-0.396973,0.077316,-0.144104,0.215729,1.183273,10.734756
2019-01-28 21:45:16:4516,-0.396973,0.077316,-0.144104,0.478928,0.963135,10.76825
2019-01-28 21:45:16:4516,-0.396973,0.077316,-0.144104,0.780426,0.658051,10.27533
2019-01-28 21:45:17:4517,-0.396973,0.077316,-0.144104,0.873749,0.763336,9.736938
2019-01-28 21:45:17:4517,-0.396973,0.077316,-0.144104,0.42868,1.044495,9.319397
2019-01-28 21:45:17:4517,-0.396973,0.077316,-0.144104,-0.16713,1.249084,8.638641
2019-01-28 21:45:17:4517,-0.396973,0.077316,-0.144104,-0.348984,1.4776,8.55249
2019-01-28 21:45:17:4517,-0.396973,0.077316,-0.144104,-0.553574,1.645096,8.775024
2019-01-28 21:45:17:4517,-0.396973,0.077316,-0.144104,-0.823959,1.97171,9.087296
2019-01-28 21:45:17:4517,-0.396973,0.077316,-0.144104,-0.713898,2.173904,8.73555
2019-01-28 21:45:17:4517,-0.396973,0.077316,-0.144104,-0.651688,2.203812,8.2845
2019-01-28 21:45:17:4517,-0.396973,0.077316,-0.144104,-0.981888,2.17511,9.278717
2019-01-28 21:45:17:4517,-0.396973,0.077316,-0.144104,-0.411194,1.70372,11.478912
2019-01-28 21:45:17:4517,-0.396973,0.077316,-0.144104,0.659592,0.556366,10.783798
2019-01-28 21:45:17:4517,-0.396973,0.077316,-0.144104,0.043442,0.019165,9.708237
2019-01-28 21:45:17:4517,-0.396973,0.077316,-0.144104,-0.138412,0.226151,9.74054
2019-01-28 21:45:17:4517,-0.396973,0.077316,-0.144104,0.011139,0.691559,8.455582
2019-01-28 21:45:17:4517,-0.396973,0.077316,-0.144104,-0.246094,1.307709,7.159866
2019-01-28 21:45:17:4517,-0.396973,0.077316,-0.144104,-0.713898,1.660645,7.103638
2019-01-28 21:45:17:4517,-0.396973,0.077316,-0.144104,-0.748581,1.372314,8.667343
2019-01-28 21:45:17:4517,-0.396973,0.077316,-0.144104,-0.508118,0.855469,10.506226
2019-01-28 21:45:17:4517,-0.396973,0.077316,-0.144104,-0.035538,0.545593,12.725571
2019-01-28 21:45:17:4517,-0.396973,0.077316,-0.144104,0.788803,0.380478,13.096466
2019-01-28 21:45:17:4517,-0.396973,0.077316,-0.144104,0.949127,0.379288,11.684692
2019-01-28 21:45:17:4517,-0.396973,0.077316,-0.144104,0.505249,0.713089,9.520386
2019-01-28 21:45:17:4517,-0.396973,0.077316,-0.144104,0.121216,0.847092,10.245407
2019-01-28 21:45:17:4517,-0.396973,0.077316,-0.144104,-0.188675,0.268021,11.245605
2019-01-28 21:45:17:4517,-0.396973,0.077316,-0.144104,-0.057068,0.114883,10.566055
2019-01-28 21:45:17:4517,-0.396973,0.077316,-0.144104,-0.112106,0.366135,9.759674
2019-01-28 21:45:17:4517,-0.396973,0.077316,-0.144104,0.404755,0.73822,9.028671
2019-01-28 21:45:17:4517,-0.396973,0.077316,-0.144104,0.535172,1.105515,9.76445
2019-01-28 21:45:17:4517,-0.396973,0.077316,-0.144104,-0.041519,1.142593,9.826675
2019-01-28 21:45:17:4517,-0.396973,0.077316,-0.144104,-0.587067,1.399826,9.460571
2019-01-28 21:45:17:4517,-0.396973,0.077316,-0.144104,-0.351379,1.585266,8.344315
2019-01-28 21:45:17:4517,-0.396973,0.077316,-0.144104,0.112839,1.384277,8.731964
2019-01-28 21:45:17:4517,-0.396973,0.077316,-0.144104,0.383224,0.696335,10.926178
2019-01-28 21:45:17:4517,-0.396973,0.077316,-0.144104,0.577042,-0.126801,9.665161
2019-01-28 21:45:17:4517,-0.396973,0.077316,-0.144104,0.758896,-0.092102,10.48111
2019-01-28 21:45:17:4517,-0.396973,0.077316,-0.144104,0.276749,0.312286,10.834045
2019-01-28 21:45:17:4517,-0.396973,0.077316,-0.144104,0.135574,1.219162,10.873535
2019-01-28 21:45:17:4517,-0.396973,0.077316,-0.144104,-0.823959,1.495544,8.888687
2019-01-28 21:45:17:4517,-0.396973,0.077316,-0.144104,-0.908905,1.702515,8.61232
2019-01-28 21:45:17:4517,-0.396973,0.077316,-0.144104,-0.072617,1.25148,9.898453
2019-01-28 21:45:17:4517,-0.396973,0.077316,-0.144104,1.582031,1.122269,10.516998
2019-01-28 21:45:17:4517,-0.396973,0.077316,-0.144104,-0.295151,0.921265,9.315796
2019-01-28 21:45:17:4517,-0.396973,0.077316,-0.144104,0.061386,0.78009,7.93515
2019-01-28 21:45:17:4517,-0.396973,0.077316,-0.144104,-0.120468,1.406998,10.19278
2019-01-28 21:45:17:4517,-0.396973,0.077316,-0.144104,-0.528442,1.159348,11.197754
2019-01-28 21:45:17:4517,-0.396973,0.077316,-0.144104,-1.275009,1.02655,11.129562
2019-01-28 21:45:17:4517,-0.396973,0.077316,-0.144104,0.331787,2.120071,10.356689
2019-01-28 21:45:17:4517,-0.396973,0.077316,-0.144104,-1.909103,0.507309,8.587189
2019-01-28 21:45:17:4517,-0.396973,0.077316,-0.144104,-2.458267,0.072998,9.600555
2019-01-28 21:45:17:4517,-0.396973,0.077316,-0.144104,-0.646896,0.853058,10.573227
2019-01-28 21:45:17:4517,-0.396973,0.077316,-0.144104,-1.704514,0.000031,8.997559
2019-01-28 21:45:17:4517,-0.396973,0.077316,-0.144104,-0.765335,1.511093,7.621689
2019-01-28 21:45:17:4517,-0.396973,0.077316,-0.144104,-1.702133,2.89534,5.894073
2019-01-28 21:45:17:4517,-0.396973,0.077316,-0.144104,-1.644699,2.860641,5.440628
2019-01-28 21:45:17:4517,-0.396973,0.077316,-0.144104,-1.604019,1.876007,8.383804
2019-01-28 21:45:17:4517,-0.396973,0.077316,-0.144104,-1.194855,1.323257,11.197754
2019-01-28 21:45:17:4517,-0.396973,0.077316,-0.144104,-1.186478,0.951172,11.007523
2019-01-28 21:45:17:4517,-0.396973,0.077316,-0.144104,-1.909103,0.948776,9.795563
2019-01-28 21:45:17:4517,-0.396973,0.077316,-0.144104,-2.063446,1.166519,10.525375
2019-01-28 21:45:17:4517,-0.396973,0.077316,-0.144104,-2.71907,-0.765686,11.392776
2019-01-28 21:45:17:4517,-0.396973,0.077316,-0.144104,0.155914,0.072998,11.827072
2019-01-28 21:45:17:4517,-0.396973,0.077316,-0.144104,3.904266,1.873611,11.644028
2019-01-28 21:45:17:4517,-0.396973,0.077316,-0.144104,1.808151,1.288559,10.414108
2019-01-28 21:45:17:4517,-0.396973,0.077316,-0.144104,-0.029541,1.844894,8.538147
2019-01-28 21:45:17:4517,-0.396973,0.077316,-0.144104,-0.728256,1.556564,7.389587
2019-01-28 21:45:17:4517,-0.396973,0.077316,-0.144104,-0.292755,0.710693,8.724777
2019-01-28 21:45:17:4517,-0.396973,0.077316,-0.144104,0.136765,0.763336,10.592377
2019-01-28 21:45:17:4517,-0.396973,0.077316,-0.144104,-0.045105,0.540802,10.339935
2019-01-28 21:45:17:4517,-0.396973,0.077316,-0.144104,-0.122864,0.92485,7.911224
2019-01-28 21:45:17:4517,-0.396973,0.077316,-0.144104,-0.327454,0.522858,6.922974
2019-01-28 21:45:17:4517,-0.396973,0.077316,-0.144104,-0.811996,0.216568,9.64122
2019-01-28 21:45:17:4517,-0.396973,0.077316,-0.144104,-1.822968,0.081375,12.741135
2019-01-28 21:45:17:4517,-0.396973,0.077316,-0.144104,-1.582489,0.921265,10.719193
2019-01-28 21:45:17:4517,-0.396973,0.077316,-0.144104,-0.615784,1.775497,7.716202
2019-01-28 21:45:17:4517,-0.396973,0.077316,-0.144104,0.051819,1.653473,8.094269
2019-01-28 21:45:17:4517,-0.396973,0.077316,-0.144104,-0.509308,1.527847,9.921188
2019-01-28 21:45:17:4517,-0.396973,0.077316,-0.144104,-1.330048,0.847076,11.358078
2019-01-28 21:45:17:4517,-0.396973,0.077316,-0.144104,-0.246094,-0.332581,11.32338
2019-01-28 21:45:17:4517,-0.396973,0.077316,-0.144104,0.405945,-1.150925,10.980011
2019-01-28 21:45:17:4517,-0.396973,0.077316,-0.144104,-0.114487,-1.156921,10.063568
2019-01-28 21:45:17:4517,-0.396973,0.077316,-0.144104,-0.637314,-1.463196,9.732147
2019-01-28 21:45:17:4517,-0.396973,0.077316,-0.144104,-0.804825,-1.137772,9.358871
2019-01-28 21:45:17:4517,-0.396973,0.077316,-0.144104,-1.325256,-0.881729,9.685486
2019-01-28 21:45:17:4517,-0.396973,0.077316,-0.144104,-2.129242,-0.37326,9.97023
2019-01-28 21:45:17:4517,-0.396973,0.077316,-0.144104,-2.764542,0.308701,10.032455
2019-01-28 21:45:17:4517,-0.396973,0.077316,-0.144104,-2.082581,0.806412,9.873337
2019-01-28 21:45:17:4517,-0.396973,0.077316,-0.144104,-1.368332,0.818375,9.683105
2019-01-28 21:45:17:4517,-0.396973,0.077316,-0.144104,-1.149384,0.665237,9.185394
2019-01-28 21:45:17:4517,-0.396973,0.077316,-0.144104,-0.748581,0.741806,8.662567
2019-01-28 21:45:17:4517,-0.396973,0.077316,-0.144104,-0.321472,1.183273,8.719986
2019-01-28 21:45:17:4517,-0.396973,0.077316,-0.144104,-0.677994,1.84848,8.850403
2019-01-28 21:45:17:4517,-0.396973,0.077316,-0.144104,-1.331238,1.676193,8.791779
2019-01-28 21:45:17:4517,-0.396973,0.077316,-0.144104,-1.483185,1.206009,9.423477
2019-01-28 21:45:17:4517,-0.396973,0.077316,-0.144104,-1.516678,1.007401,10.099457
2019-01-28 21:45:17:4517,-0.396973,0.077316,-0.144104,-1.511902,1.256256,9.442627
2019-01-28 21:45:17:4517,-0.396973,0.077316,-0.144104,-2.18309,1.563736,8.484299
2019-01-28 21:45:17:4517,-0.396973,0.077316,-0.144104,-2.055069,1.58049,8.719986
2019-01-28 21:45:17:4517,-0.396973,0.077316,-0.144104,-1.072815,1.064835,9.342133
2019-01-28 21:45:17:4517,-0.396973,0.077316,-0.144104,0.007553,0.601822,9.104034
2019-01-28 21:45:17:4517,-0.396973,0.077316,-0.144104,0.500473,0.183075,9.854187
2019-01-28 21:45:17:4517,-0.396973,0.077316,-0.144104,0.602173,0.228531,11.064957
2019-01-28 21:45:17:4517,-0.396973,0.077316,-0.144104,-0.089371,0.508499,10.867538
2019-01-28 21:45:17:4517,-0.396973,0.077316,-0.144104,-0.643311,0.659241,10.46196
2019-01-28 21:45:17:4517,-0.396973,0.077316,-0.144104,-0.454269,0.788452,10.555283
2019-01-28 21:45:17:4517,-0.396973,0.077316,-0.144104,-0.130051,0.562347,10.849594
2019-01-28 21:45:17:4517,-0.396973,0.077316,-0.144104,0.148727,0.317078,10.217896
2019-01-28 21:45:17:4517,-0.396973,0.077316,-0.144104,0.912033,0.160339,9.234451
2019-01-28 21:45:17:4517,-0.396973,0.077316,-0.144104,0.913239,0.153168,8.910217
2019-01-28 21:45:17:4517,-0.396973,0.077316,-0.144104,0.275543,0.491745,9.391174
2019-01-28 21:45:17:4517,-0.396973,0.077316,-0.144104,-0.557159,1.089951,9.019089
2019-01-28 21:45:17:4517,-0.396973,0.077316,-0.144104,-1.069229,1.217972,8.111023
2019-01-28 21:45:17:4517,-0.396973,0.077316,-0.144104,-0.608612,0.654465,9.078918
2019-01-28 21:45:17:4517,-0.396973,0.077316,-0.144104,0.238449,0.010788,10.897461
2019-01-28 21:45:17:4517,-0.396973,0.077316,-0.144104,0.388016,0.392456,11.037445
2019-01-28 21:45:17:4517,-0.396973,0.077316,-0.144104,-0.296341,1.269409,9.663956
2019-01-28 21:45:17:4517,-0.396973,0.077316,-0.144104,-0.609802,2.201416,8.485489
2019-01-28 21:45:17:4517,-0.396973,0.077316,-0.144104,-0.846695,2.766129,8.234238
2019-01-28 21:45:17:4517,-0.396973,0.077316,-0.144104,-1.149384,2.386871,9.759674
2019-01-28 21:45:17:4517,-0.396973,0.077316,-0.144104,0.198975,1.95137,10.863968
2019-01-28 21:45:17:4517,-0.396973,0.077316,-0.144104,0.989807,1.307709,12.438446
2019-01-28 21:45:17:4517,-0.396973,0.077316,-0.144104,2.112045,0.614975,11.554291
2019-01-28 21:45:17:4517,-0.396973,0.077316,-0.144104,2.871765,0.540802,10.253784
2019-01-28 21:45:17:4517,-0.396973,0.077316,-0.144104,1.580826,0.770523,9.977417
2019-01-28 21:45:17:4517,-0.396973,0.077316,-0.144104,-0.585876,1.343597,9.66037
2019-01-28 21:45:17:4517,-0.396973,0.077316,-0.144104,-0.943604,1.267029,8.949707
2019-01-28 21:45:17:4517,-0.396973,0.077316,-0.144104,0.533966,1.214386,7.433853
2019-01-28 21:45:17:4517,-0.396973,0.077316,-0.144104,1.28891,1.009796,6.981613
2019-01-28 21:45:17:4517,-0.396973,0.077316,-0.144104,0.825897,1.050476,7.880112
2019-01-28 21:45:17:4517,-0.396973,0.077316,-0.144104,-0.555969,1.123459,9.943924
2019-01-28 21:45:17:4517,-0.396973,0.077316,-0.144104,-1.23793,1.39624,10.402145
2019-01-28 21:45:17:4517,-0.396973,0.077316,-0.144104,-1.575317,1.773102,9.92717
2019-01-28 21:45:17:4517,-0.396973,0.077316,-0.144104,-0.804825,1.487167,10.183212
2019-01-28 21:45:17:4517,-0.396973,0.077316,-0.144104,0.527985,1.073212,11.102051
2019-01-28 21:45:17:4517,-0.396973,0.077316,-0.144104,1.050827,0.672409,12.196762
2019-01-28 21:45:17:4517,-0.396973,0.077316,-0.144104,-0.127655,0.747787,11.846222
2019-01-28 21:45:17:4517,-0.396973,0.077316,-0.144104,0.583023,0.291946,9.84581
2019-01-28 21:45:17:4517,-0.396973,0.077316,-0.144104,0.523209,0.631729,8.850403
2019-01-28 21:45:17:4517,-0.396973,0.077316,-0.144104,1.385818,0.789658,8.040436
2019-01-28 21:45:17:4517,-0.396973,0.077316,-0.144104,0.709839,0.69873,6.5186
2019-01-28 21:45:17:4517,-0.396973,0.077316,-0.144104,0.458603,0.918869,5.639236
2019-01-28 21:45:17:4517,-0.396973,0.077316,-0.144104,-0.666046,0.305115,7.576218
2019-01-28 21:45:17:4517,-0.396973,0.077316,-0.144104,-1.192459,0.692749,9.791977
2019-01-28 21:45:17:4517,-0.396973,0.077316,-0.144104,-0.951981,1.005005,10.176025
2019-01-28 21:45:17:4517,-0.396973,0.077316,-0.144104,-1.674606,1.172501,10.338745
2019-01-28 21:45:17:4517,-0.396973,0.077316,-0.144104,-1.630341,1.249084,10.726379
2019-01-28 21:45:17:4517,-0.396973,0.077316,-0.144104,-0.561951,0.850677,13.352493
2019-01-28 21:45:17:4517,-0.396973,0.077316,-0.144104,0.847427,0.518066,14.297668
2019-01-28 21:45:17:4517,-0.396973,0.077316,-0.144104,1.072357,0.738205,12.218307
2019-01-28 21:45:17:4517,-0.396973,0.077316,-0.144104,-0.097748,0.898529,9.220093
2019-01-28 21:45:17:4517,-0.396973,0.077316,-0.144104,0.36528,0.753769,7.303436
2019-01-28 21:45:17:4517,-0.396973,0.077316,-0.144104,1.170456,0.331436,7.121582
2019-01-28 21:45:17:4517,-0.396973,0.077316,-0.144104,1.127396,0.094543,7.031845
2019-01-28 21:45:17:4517,-0.396973,0.077316,-0.144104,0.600967,0.082581,7.547516
2019-01-28 21:45:17:4517,-0.396973,0.077316,-0.144104,0.081726,0.540802,7.695862
2019-01-28 21:45:17:4517,-0.396973,0.077316,-0.144104,-1.309708,0.879395,8.234253
2019-01-28 21:45:17:4517,-0.396973,0.077316,-0.144104,-1.436523,0.544403,11.176224
2019-01-28 21:45:17:4517,-0.396973,0.077316,-0.144104,-0.332245,0.094543,13.208923
2019-01-28 21:45:17:4517,-0.06926,-0.103729,-0.048691,-0.332245,0.094543,13.208923
2019-01-28 21:45:17:4517,-0.06926,-0.103729,-0.048691,0.01593,0.083771,14.112213
2019-01-28 21:45:18:4518,-0.06926,-0.103729,-0.048691,-0.460251,0.464233,13.085693
2019-01-28 21:45:18:4518,-0.06926,-0.103729,-0.048691,-0.358566,0.653275,11.559082
2019-01-28 21:45:18:4518,-0.06926,-0.103729,-0.048691,-0.296341,0.449875,10.123383
2019-01-28 21:45:18:4518,-0.06926,-0.103729,-0.048691,0.352112,0.104111,8.764252
2019-01-28 21:45:18:4518,-0.06926,-0.103729,-0.048691,0.665573,0.185471,7.887283
2019-01-28 21:45:18:4518,-0.06926,-0.103729,-0.048691,0.358093,0.539612,7.46257
2019-01-28 21:45:18:4518,-0.06926,-0.103729,-0.048691,0.133179,0.829147,7.121582
2019-01-28 21:45:18:4518,-0.06926,-0.103729,-0.048691,0.16069,1.02774,7.553497
2019-01-28 21:45:18:4518,-0.06926,-0.103729,-0.048691,-0.234131,1.118668,8.638626
2019-01-28 21:45:18:4518,0.314972,0.082504,-0.009415,-0.234131,1.118668,8.638626
2019-01-28 21:45:18:4518,0.314972,0.082504,-0.009415,-0.101334,1.176102,10.104233
2019-01-28 21:45:18:4518,0.314972,0.082504,-0.009415,0.060196,1.00621,10.886688
2019-01-28 21:45:18:4518,0.314972,0.082504,-0.009415,0.342545,0.75975,10.910614
2019-01-28 21:45:18:4518,0.314972,0.082504,-0.009415,0.513626,0.672409,11.002747
2019-01-28 21:45:18:4518,0.314972,0.082504,-0.009415,0.478943,0.713089,10.721588
2019-01-28 21:45:18:4518,0.314972,0.082504,-0.009415,0.216919,0.618576,10.499054
2019-01-28 21:45:18:4518,0.314972,0.082504,-0.009415,0.191803,0.807602,10.015701
2019-01-28 21:45:18:4518,0.314972,0.082504,-0.009415,-0.205429,1.069626,10.081497
2019-01-28 21:45:18:4518,0.314972,0.082504,-0.009415,-0.439911,1.283768,9.921188
2019-01-28 21:45:18:4518,0.103973,-0.06134,0.023636,-0.439911,1.283768,9.921188
2019-01-28 21:45:18:4518,0.103973,-0.06134,0.023636,-0.343002,1.60202,9.693863
2019-01-28 21:45:18:4518,0.103973,-0.06134,0.023636,-0.254471,1.99324,9.5168
2019-01-28 21:45:18:4518,0.103973,-0.06134,0.023636,-0.382492,1.922653,9.038239
2019-01-28 21:45:19:4519,0.103973,-0.06134,0.023636,-0.348984,1.485977,8.820496
2019-01-28 21:45:19:4519,0.103973,-0.06134,0.023636,-0.226959,0.958344,9.380402
2019-01-28 21:45:19:4519,0.103973,-0.06134,0.023636,0.231277,0.765732,9.817093
2019-01-28 21:45:19:4519,0.103973,-0.06134,0.023636,0.087708,0.831528,9.654388
2019-01-28 21:45:19:4519,0.103973,-0.06134,0.023636,0.024307,0.929642,9.16864
2019-01-28 21:45:19:4519,0.103973,-0.06134,0.023636,-0.108505,1.012192,9.10524
2019-01-28 21:45:19:4519,0.103973,-0.06134,0.023636,-0.316681,1.337616,9.255981
2019-01-28 21:45:19:4519,0.076614,0.089157,0.078796,-0.316681,1.337616,9.255981
2019-01-28 21:45:19:4519,0.076614,0.089157,0.078796,-0.411194,1.525452,9.657974
2019-01-28 21:45:19:4519,0.076614,0.089157,0.078796,0.332977,1.636719,9.326569
2019-01-28 21:45:19:4519,0.076614,0.089157,0.078796,0.862976,1.275406,9.282303
2019-01-28 21:45:19:4519,0.076614,0.089157,0.078796,0.471756,0.897339,10.089874
2019-01-28 21:45:19:4519,0.076614,0.089157,0.078796,0.744537,0.696335,10.499054
2019-01-28 21:45:19:4519,0.076614,0.089157,0.078796,0.115234,1.015778,9.986984
2019-01-28 21:45:19:4519,0.076614,0.089157,0.078796,-0.116882,0.999023,9.656784
2019-01-28 21:45:19:4519,0.076614,0.089157,0.078796,-0.338226,1.02774,9.957077
2019-01-28 21:45:19:4519,0.076614,0.089157,0.078796,-0.298737,1.093552,10.122177
2019-01-28 21:45:19:4519,-0.064423,0.007141,0.02095,-0.298737,1.093552,10.122177
2019-01-28 21:45:19:4519,-0.064423,0.007141,0.02095,-0.398041,1.326843,9.589783
2019-01-28 21:45:19:4519,-0.064423,0.007141,0.02095,-0.790466,1.697739,9.330154
2019-01-28 21:45:19:4519,-0.064423,0.007141,0.02095,-0.837128,1.858047,9.223679
2019-01-28 21:45:19:4519,-0.064423,0.007141,0.02095,-0.639725,1.677399,9.55867
2019-01-28 21:45:19:4519,-0.064423,0.007141,0.02095,-0.475815,1.311295,10.307632
2019-01-28 21:45:19:4519,-0.064423,0.007141,0.02095,-0.079803,1.155762,10.682098
2019-01-28 21:45:19:4519,-0.064423,0.007141,0.02095,0.547134,0.927246,10.259781
2019-01-28 21:45:19:4519,-0.064423,0.007141,0.02095,0.968277,0.357758,10.368637
2019-01-28 21:45:19:4519,-0.064423,0.007141,0.02095,0.788803,0.156754,10.698853
2019-01-28 21:45:19:4519,-0.064423,0.007141,0.02095,0.626099,0.375702,9.953491
2019-01-28 21:45:19:4519,0.127502,0.211456,-0.037628,0.626099,0.375702,9.953491
2019-01-28 21:45:19:4519,0.127502,0.211456,-0.037628,0.231277,0.642502,8.441223
2019-01-28 21:45:19:4519,0.127502,0.211456,-0.037628,-0.241302,0.859055,7.603745
2019-01-28 21:45:19:4519,0.127502,0.211456,-0.037628,-1.071625,0.922455,7.56665
2019-01-28 21:45:19:4519,0.127502,0.211456,-0.037628,-1.187668,1.003815,8.194763
2019-01-28 21:45:19:4519,0.127502,0.211456,-0.037628,-0.912491,0.879379,8.851593
2019-01-28 21:45:19:4519,0.127502,0.211456,-0.037628,-1.052475,0.756149,9.714203
2019-01-28 21:45:19:4519,0.127502,0.211456,-0.037628,-1.532242,0.532425,11.167847
2019-01-28 21:45:19:4519,0.127502,0.211456,-0.037628,-1.082397,0.238113,12.526978
2019-01-28 21:45:19:4519,0.127502,0.211456,-0.037628,-0.381287,0.077789,12.355881
2019-01-28 21:45:19:4519,0.127502,0.211456,-0.037628,-0.22934,0.232132,10.225082
2019-01-28 21:45:19:4519,-0.092163,0.067734,-0.060654,-0.22934,0.232132,10.225082
2019-01-28 21:45:19:4519,-0.092163,0.067734,-0.060654,-0.420776,0.351776,8.980804
2019-01-28 21:45:19:4519,-0.092163,0.067734,-0.060654,-0.363342,0.183075,8.783401
2019-01-28 21:45:19:4519,-0.092163,0.067734,-0.060654,-0.4758,0.178284,9.032257
2019-01-28 21:45:19:4519,-0.092163,0.067734,-0.060654,-0.633728,0.26683,9.419891
2019-01-28 21:45:19:4519,-0.092163,0.067734,-0.060654,-0.388474,0.358948,9.693863
2019-01-28 21:45:19:4519,-0.092163,0.067734,-0.060654,-0.425552,0.477386,9.605331
2019-01-28 21:45:19:4519,-0.092163,0.067734,-0.060654,-0.473404,0.667618,9.534744
2019-01-28 21:45:19:4519,-0.092163,0.067734,-0.060654,-0.694748,0.799225,9.720184
2019-01-28 21:45:19:4519,-0.092163,0.067734,-0.060654,-1.106308,0.580292,9.959473
2019-01-28 21:45:19:4519,-0.011459,-0.020905,-0.060226,-1.106308,0.580292,9.959473
2019-01-28 21:45:19:4519,-0.011459,-0.020905,-0.060226,-1.027359,0.228546,10.432053
2019-01-28 21:45:19:4519,-0.011459,-0.020905,-0.060226,-0.657669,0.264435,10.534943
2019-01-28 21:45:19:4519,-0.011459,-0.020905,-0.060226,-0.634933,0.483383,10.068344
2019-01-28 21:45:19:4519,-0.011459,-0.020905,-0.060226,-0.753372,0.675995,9.212921
2019-01-28 21:45:19:4519,-0.011459,-0.020905,-0.060226,-0.576309,0.734619,9.157867
2019-01-28 21:45:19:4519,-0.011459,-0.020905,-0.060226,-0.526062,0.80043,8.722382
2019-01-28 21:45:19:4519,-0.011459,-0.020905,-0.060226,-0.430344,0.564728,9.306229
2019-01-28 21:45:19:4519,-0.011459,-0.020905,-0.060226,-0.427948,0.452271,9.590973
2019-01-28 21:45:19:4519,-0.011459,-0.020905,-0.060226,-0.430344,0.454666,10.016907
2019-01-28 21:45:19:4519,-0.011459,-0.020905,-0.060226,-0.632538,0.477386,9.84581
2019-01-28 21:45:19:4519,-0.158127,-0.090652,-0.032196,-0.632538,0.477386,9.84581
2019-01-28 21:45:19:4519,-0.158127,-0.090652,-0.032196,-0.523666,0.49295,9.769241
2019-01-28 21:45:19:4519,-0.158127,-0.090652,-0.032196,-0.626556,0.521667,9.686691
2019-01-28 21:45:19:4519,-0.158127,-0.090652,-0.032196,-0.725861,0.443893,9.528763
2019-01-28 21:45:19:4519,-0.158127,-0.090652,-0.032196,-0.351379,0.318268,9.734543
2019-01-28 21:45:19:4519,-0.158127,-0.090652,-0.032196,-0.030746,0.333817,9.888885
2019-01-28 21:45:19:4519,-0.158127,-0.090652,-0.032196,-0.186279,0.512085,10.074326
2019-01-28 21:45:19:4519,-0.158127,-0.090652,-0.032196,-0.488968,0.57431,10.067154
2019-01-28 21:45:19:4519,-0.158127,-0.090652,-0.032196,-0.387268,0.30751,10.129364
2019-01-28 21:45:19:4519,-0.158127,-0.090652,-0.032196,-0.176697,0.017975,10.183197
2019-01-28 21:45:19:4519,-0.080795,-0.129395,0.018631,-0.176697,0.017975,10.183197
2019-01-28 21:45:19:4519,-0.080795,-0.129395,0.018631,-0.273605,-0.08493,10.696457
2019-01-28 21:45:19:4519,-0.080795,-0.129395,0.018631,-0.386078,0.026337,10.636642
2019-01-28 21:45:19:4519,-0.080795,-0.129395,0.018631,-0.443497,0.447479,10.506241
2019-01-28 21:45:19:4519,-0.080795,-0.129395,0.018631,-0.343002,0.427139,10.284897
2019-01-28 21:45:19:4519,-0.080795,-0.129395,0.018631,-0.124069,-0.029892,9.868546
2019-01-28 21:45:19:4519,-0.080795,-0.129395,0.018631,-0.012802,-0.467773,9.815903
2019-01-28 21:45:19:4519,-0.080795,-0.129395,0.018631,-0.132431,-0.549133,9.498856
2019-01-28 21:45:19:4519,-0.080795,-0.129395,0.018631,-0.189865,-0.380447,8.876724
2019-01-28 21:45:20:4520,-0.080795,-0.129395,0.018631,-0.535629,-0.281143,8.539337
2019-01-28 21:45:20:4520,-0.080795,-0.129395,0.018631,-0.760559,-0.448639,8.825272
2019-01-28 21:45:20:4520,0.079239,0.114761,-0.079041,-0.760559,-0.448639,8.825272
2019-01-28 21:45:20:4520,0.079239,0.114761,-0.079041,-1.087173,-0.586227,9.820694
2019-01-28 21:45:20:4520,0.079239,0.114761,-0.079041,-1.099136,-0.491699,10.685699
2019-01-28 21:45:20:4520,0.079239,0.114761,-0.079041,-0.755768,-0.08493,10.313614
2019-01-28 21:45:20:4520,0.079239,0.114761,-0.079041,-0.758163,0.419968,9.774033
2019-01-28 21:45:20:4520,0.079239,0.114761,-0.079041,-0.626556,0.582687,9.424667
2019-01-28 21:45:20:4520,0.079239,0.114761,-0.079041,-0.590668,0.430725,9.53595
2019-01-28 21:45:20:4520,0.079239,0.114761,-0.079041,-0.401627,0.055054,9.791977
2019-01-28 21:45:20:4520,0.079239,0.114761,-0.079041,-0.259247,-0.06459,9.778809
2019-01-28 21:45:20:4520,0.079239,0.114761,-0.079041,-0.523666,0.177094,9.637634
2019-01-28 21:45:20:4520,-0.047318,-0.038132,0.103226,-0.523666,0.177094,9.637634
2019-01-28 21:45:20:4520,-0.047318,-0.038132,0.103226,-0.739014,0.326645,9.272736
2019-01-28 21:45:20:4520,-0.047318,-0.038132,0.103226,-0.667236,0.140015,9.226074
2019-01-28 21:45:20:4520,-0.047318,-0.038132,0.103226,-0.441101,-0.029892,9.713013
2019-01-28 21:45:20:4520,-0.047318,-0.038132,0.103226,-0.290359,0.230927,10.128159
2019-01-28 21:45:20:4520,-0.047318,-0.038132,0.103226,-0.488968,0.771713,9.470139
2019-01-28 21:45:20:4520,-0.047318,-0.038132,0.103226,-0.517685,0.872208,8.934158
2019-01-28 21:45:20:4520,-0.047318,-0.038132,0.103226,-0.241302,0.288361,8.821686
2019-01-28 21:45:20:4520,-0.047318,-0.038132,0.103226,-0.309509,-0.083725,9.471329
2019-01-28 21:45:20:4520,-0.047318,-0.038132,0.103226,-0.305908,0.163925,10.11142
2019-01-28 21:45:20:4520,-0.022888,-0.228165,0.107742,-0.305908,0.163925,10.11142
2019-01-28 21:45:20:4520,-0.022888,-0.228165,0.107742,-0.612198,1.079193,9.8853
2019-01-28 21:45:20:4520,-0.022888,-0.228165,0.107742,-0.666031,1.814987,9.110016
2019-01-28 21:45:20:4520,-0.022888,-0.228165,0.107742,-0.749786,1.585266,9.223679
2019-01-28 21:45:20:4520,-0.022888,-0.228165,0.107742,-0.120468,1.122253,11.61171
2019-01-28 21:45:20:4520,-0.022888,-0.228165,0.107742,0.547134,0.772919,13.207733
2019-01-28 21:45:20:4520,-0.022888,-0.228165,0.107742,1.26976,0.294342,12.397766
2019-01-28 21:45:20:4520,-0.022888,-0.228165,0.107742,1.671753,0.173508,11.153488
2019-01-28 21:45:20:4520,-0.022888,-0.228165,0.107742,1.814133,0.419968,10.252594
2019-01-28 21:45:20:4520,-0.022888,-0.228165,0.107742,1.199173,0.902115,8.802536
2019-01-28 21:45:20:4520,-0.022888,-0.228165,0.107742,0.177444,1.250275,7.720993
2019-01-28 21:45:20:4520,0.135132,0.010239,-0.109283,0.177444,1.250275,7.720993
2019-01-28 21:45:20:4520,0.135132,0.010239,-0.109283,-0.649292,1.542191,7.383606
2019-01-28 21:45:20:4520,0.135132,0.010239,-0.109283,-0.591858,1.53981,6.870346
2019-01-28 21:45:20:4520,0.135132,0.010239,-0.109283,-0.469818,1.318466,7.289078
2019-01-28 21:45:20:4520,0.135132,0.010239,-0.109283,-0.384872,1.330429,8.554886
2019-01-28 21:45:20:4520,0.135132,0.010239,-0.109283,-0.420761,1.53862,9.812317
2019-01-28 21:45:20:4520,0.135132,0.010239,-0.109283,-0.321472,1.727646,10.917801
2019-01-28 21:45:20:4520,0.135132,0.010239,-0.109283,-0.213791,1.713287,12.018494
2019-01-28 21:45:20:4520,0.135132,0.010239,-0.109283,0.042252,1.590057,12.443222
2019-01-28 21:45:20:4520,0.135132,0.010239,-0.109283,0.597382,1.391449,11.320999
2019-01-28 21:45:20:4520,0.111496,0.068588,-0.046066,0.597382,1.391449,11.320999
2019-01-28 21:45:20:4520,0.111496,0.068588,-0.046066,0.868973,1.209595,9.545517
2019-01-28 21:45:20:4520,0.111496,0.068588,-0.046066,1.019714,1.244293,8.164856
2019-01-28 21:45:20:4520,0.111496,0.068588,-0.046066,0.81633,1.347183,7.078522
2019-01-28 21:45:20:4520,0.111496,0.068588,-0.046066,0.556702,1.469223,6.511414
2019-01-28 21:45:20:4520,0.111496,0.068588,-0.046066,0.245636,1.289749,6.702835
2019-01-28 21:45:20:4520,0.111496,0.068588,-0.046066,0.194183,1.140213,7.960266
2019-01-28 21:45:20:4520,0.111496,0.068588,-0.046066,0.301865,1.240707,9.422287
2019-01-28 21:45:20:4520,0.111496,0.068588,-0.046066,0.267166,1.305313,10.476318
2019-01-28 21:45:20:4520,0.111496,0.068588,-0.046066,-0.088165,0.946396,10.946518
2019-01-28 21:45:20:4520,0.111496,0.068588,-0.046066,-0.02356,0.4104,11.983795
2019-01-28 21:45:20:4520,-0.027161,0.063629,-0.056503,-0.02356,0.4104,11.983795
2019-01-28 21:45:20:4520,-0.027161,0.063629,-0.056503,0.301865,0.337418,12.373825
2019-01-28 21:45:20:4520,-0.027161,0.063629,-0.056503,0.270752,0.534821,11.38559
2019-01-28 21:45:20:4520,-0.027161,0.063629,-0.056503,0.0578,0.932037,9.307419
2019-01-28 21:45:20:4520,-0.027161,0.063629,-0.056503,-0.466232,1.243088,7.451797
2019-01-28 21:45:20:4520,-0.027161,0.063629,-0.056503,-0.689957,1.329239,6.748306
2019-01-28 21:45:20:4520,-0.027161,0.063629,-0.056503,-0.522461,1.307693,7.295059
2019-01-28 21:45:20:4520,-0.027161,0.063629,-0.056503,-0.368134,1.302917,7.990189
2019-01-28 21:45:20:4520,-0.027161,0.063629,-0.056503,0.023102,1.225143,8.915009
2019-01-28 21:45:20:4520,-0.027161,0.063629,-0.056503,-0.108505,0.906906,9.911621
2019-01-28 21:45:20:4520,-0.164368,-0.012604,-0.03891,-0.108505,0.906906,9.911621
2019-01-28 21:45:20:4520,-0.164368,-0.012604,-0.03891,0.03627,0.216583,11.030258
2019-01-28 21:45:20:4520,-0.164368,-0.012604,-0.03891,0.331772,-0.163895,12.097458
2019-01-28 21:45:20:4520,-0.164368,-0.012604,-0.03891,0.646439,-0.093292,11.98381
2019-01-28 21:45:20:4520,-0.164368,-0.012604,-0.03891,0.451416,0.160339,10.767044
2019-01-28 21:45:20:4520,-0.164368,-0.012604,-0.03891,0.2229,0.317078,9.59935
2019-01-28 21:45:20:4520,-0.164368,-0.012604,-0.03891,0.014725,0.558746,9.191376
2019-01-28 21:45:20:4520,-0.164368,-0.012604,-0.03891,-0.421967,0.90451,8.918594
2019-01-28 21:45:20:4520,-0.164368,-0.012604,-0.03891,-0.443497,0.941605,8.746307
2019-01-28 21:45:20:4520,-0.164368,-0.012604,-0.03891,-0.063049,0.61618,9.461761
2019-01-28 21:45:20:4520,-0.164368,-0.012604,-0.03891,0.008743,0.430725,10.225082
2019-01-28 21:45:20:4520,-0.02301,-0.022552,0.005554,0.008743,0.430725,10.225082
2019-01-28 21:45:20:4520,-0.02301,-0.022552,0.005554,-0.159958,0.581482,10.58519
2019-01-28 21:45:20:4520,-0.02301,-0.022552,0.005554,-0.035522,0.684372,10.494263
2019-01-28 21:45:20:4520,-0.02301,-0.022552,0.005554,-0.047485,0.647278,9.90802
2019-01-28 21:45:20:4520,-0.02301,-0.022552,0.005554,-0.138412,0.552765,9.727371
2019-01-28 21:45:20:4520,-0.02301,-0.022552,0.005554,-0.136017,0.331436,10.000153
2019-01-28 21:45:20:4520,-0.02301,-0.022552,0.005554,-0.101334,0.380493,10.428467
2019-01-28 21:45:20:4520,-0.02301,-0.022552,0.005554,-0.119278,0.713089,10.25618
2019-01-28 21:45:20:4520,-0.02301,-0.022552,0.005554,-0.138412,1.08876,9.88649
2019-01-28 21:45:20:4520,-0.02301,-0.022552,0.005554,-0.040314,1.182083,9.728561
2019-01-28 21:45:20:4520,-0.02301,-0.022552,0.005554,0.12001,1.105515,9.050201
2019-01-28 21:45:20:4520,-0.02301,-0.022552,0.005554,0.250412,0.762146,8.766647
2019-01-28 21:45:20:4520,-0.02301,-0.022552,0.005554,0.280334,0.257263,9.276321
2019-01-28 21:45:20:4520,-0.02301,-0.022552,0.005554,0.276749,-0.069382,9.820694
2019-01-28 21:45:20:4520,-0.02301,-0.022552,0.005554,0.07814,-0.039459,10.348312
2019-01-28 21:45:20:4520,-0.02301,-0.022552,0.005554,-0.089371,0.201019,10.302841
2019-01-28 21:45:20:4520,-0.02301,-0.022552,0.005554,-0.308319,0.475006,10.240631
2019-01-28 21:45:20:4520,-0.02301,-0.022552,0.005554,-0.632538,0.734619,10.15329
2019-01-28 21:45:20:4520,-0.02301,-0.022552,0.005554,-0.646896,0.837509,9.84462
2019-01-28 21:45:20:4520,-0.004684,0.001266,0.031265,-0.646896,0.837509,9.84462
2019-01-28 21:45:20:4520,-0.004684,0.001266,0.031265,-0.658859,1.04689,9.637634
2019-01-28 21:45:20:4520,-0.004684,0.001266,0.031265,-0.585876,1.359146,9.492874
2019-01-28 21:45:20:4520,-0.004684,0.001266,0.031265,-0.241302,1.462036,9.143524
2019-01-28 21:45:20:4520,-0.004684,0.001266,0.031265,-0.047485,1.055267,9.522781
2019-01-28 21:45:20:4520,-0.004684,0.001266,0.031265,0.499283,0.312286,10.969238
2019-01-28 21:45:20:4520,-0.004684,0.001266,0.031265,1.092697,-0.017929,11.868942
2019-01-28 21:45:20:4520,-0.004684,0.001266,0.031265,1.194397,0.220169,10.910614
2019-01-28 21:45:20:4520,-0.004684,0.001266,0.031265,0.67395,0.617371,9.242813
2019-01-28 21:45:20:4520,-0.004684,0.001266,0.031265,0.050613,0.758545,7.859772
2019-01-28 21:45:20:4520,-0.004684,0.001266,0.031265,-0.243713,0.619766,7.610916
2019-01-28 21:45:20:4520,0.051147,-0.032761,0.055649,-0.243713,0.619766,7.610916
2019-01-28 21:45:20:4520,0.051147,-0.032761,0.055649,-0.193451,0.49176,8.283295
2019-01-28 21:45:20:4520,0.051147,-0.032761,0.055649,0.009949,0.49295,9.211716
2019-01-28 21:45:20:4520,0.051147,-0.032761,0.055649,-0.08577,0.722656,9.814713
2019-01-28 21:45:20:4520,0.051147,-0.032761,0.055649,-0.302322,0.897339,10.318405
2019-01-28 21:45:20:4520,0.051147,-0.032761,0.055649,-0.319077,0.768127,10.556488
2019-01-28 21:45:20:4520,0.051147,-0.032761,0.055649,-0.022369,0.542007,10.710815
2019-01-28 21:45:20:4520,0.051147,-0.032761,0.055649,0.122406,0.708298,10.546921
2019-01-28 21:45:20:4520,0.051147,-0.032761,0.055649,-0.061844,1.195236,9.868546
2019-01-28 21:45:20:4520,0.051147,-0.032761,0.055649,-0.293945,1.29335,9.017899
2019-01-28 21:45:20:4520,-0.012558,0.022278,0.037262,-0.293945,1.29335,9.017899
2019-01-28 21:45:20:4520,-0.012558,0.022278,0.037262,-0.364548,0.970322,8.411316
2019-01-28 21:45:20:4520,-0.012558,0.022278,0.037262,0.084122,0.303909,9.077713
2019-01-28 21:45:20:4520,-0.012558,0.022278,0.037262,0.877335,-0.18782,10.263351
2019-01-28 21:45:20:4520,-0.012558,0.022278,0.037262,0.715836,-0.082535,10.911819
2019-01-28 21:45:20:4520,-0.012558,0.022278,0.037262,0.330582,0.374496,10.81012
2019-01-28 21:45:20:4520,-0.012558,0.022278,0.037262,-0.100128,0.756165,10.489487
2019-01-28 21:45:20:4520,-0.012558,0.022278,0.037262,-0.104919,0.909302,10.095871
2019-01-28 21:45:20:4520,-0.012558,0.022278,0.037262,-0.083389,1.087555,9.638824
2019-01-28 21:45:20:4520,-0.012558,0.022278,0.037262,0.020706,1.147385,8.990387
2019-01-28 21:45:20:4520,-0.012558,0.022278,0.037262,-0.029541,0.930832,8.741531
2019-01-28 21:45:20:4520,0.053589,0.042374,-0.125595,-0.029541,0.930832,8.741531
2019-01-28 21:45:20:4520,0.053589,0.042374,-0.125595,-0.097748,0.715485,9.33136
2019-01-28 21:45:21:4521,0.053589,0.042374,-0.125595,-0.127655,0.728638,10.007324
2019-01-28 21:45:21:4521,0.053589,0.042374,-0.125595,-0.161148,0.796829,10.156876
2019-01-28 21:45:21:4521,0.053589,0.042374,-0.125595,-0.374115,0.778885,9.839828
2019-01-28 21:45:21:4521,0.053589,0.042374,-0.125595,-0.487762,0.630539,10.210724
2019-01-28 21:45:21:4521,0.053589,0.042374,-0.125595,-0.679199,0.603012,10.940521
2019-01-28 21:45:21:4521,0.053589,0.042374,-0.125595,-0.235336,0.691559,11.443024
2019-01-28 21:45:21:4521,0.053589,0.042374,-0.125595,-0.285583,1.103119,11.865356
2019-01-28 21:45:21:4521,0.053589,0.042374,-0.125595,0.71344,1.19165,10.641434
2019-01-28 21:45:21:4521,0.133606,0.004929,-0.051926,0.71344,1.19165,10.641434
2019-01-28 21:45:21:4521,0.133606,0.004929,-0.051926,-0.555969,2.208603,10.274139
2019-01-28 21:45:21:4521,0.133606,0.004929,-0.051926,-0.314285,2.23851,9.300247
2019-01-28 21:45:21:4521,0.133606,0.004929,-0.051926,-0.152786,2.030334,8.918594
2019-01-28 21:45:21:4521,0.133606,0.004929,-0.051926,0.884521,0.692749,8.32518
2019-01-28 21:45:21:4521,0.133606,0.004929,-0.051926,2.224503,0.238113,8.730759
2019-01-28 21:45:21:4521,0.133606,0.004929,-0.051926,2.073761,-0.173462,9.691483
2019-01-28 21:45:21:4521,0.133606,0.004929,-0.051926,1.231476,0.021561,9.419891
2019-01-28 21:45:21:4521,0.133606,0.004929,-0.051926,0.18222,0.439117,10.46196
2019-01-28 21:45:21:4521,0.133606,0.004929,-0.051926,-0.061844,0.777695,10.190384
2019-01-28 21:45:21:4521,0.133606,0.004929,-0.051926,0.250427,0.966736,9.616104
2019-01-28 21:45:21:4521,0.121887,-0.09903,-0.330597,0.250427,0.966736,9.616104
2019-01-28 21:45:21:4521,0.121887,-0.09903,-0.330597,-1.071625,1.511093,8.719986
2019-01-28 21:45:21:4521,0.121887,-0.09903,-0.330597,-2.056274,1.610397,7.536743
2019-01-28 21:45:21:4521,0.121887,-0.09903,-0.330597,0.003967,1.282578,6.841629
2019-01-28 21:45:21:4521,0.121887,-0.09903,-0.330597,0.624893,1.060043,7.42308
2019-01-28 21:45:21:4521,0.121887,-0.09903,-0.330597,-0.303528,0.997833,7.52478
2019-01-28 21:45:21:4521,0.121887,-0.09903,-0.330597,-1.619583,0.788452,8.754684
2019-01-28 21:45:21:4521,0.121887,-0.09903,-0.330597,-2.370926,1.241898,9.259583
2019-01-28 21:45:21:4521,0.121887,-0.09903,-0.330597,0.620117,0.723846,9.364853
2019-01-28 21:45:21:4521,0.121887,-0.09903,-0.330597,0.743347,0.251266,11.353287
2019-01-28 21:45:21:4521,-0.353607,0.095581,-0.140625,0.743347,0.251266,11.353287
2019-01-28 21:45:21:4521,-0.353607,0.095581,-0.140625,0.031479,0.705902,11.000351
2019-01-28 21:45:21:4521,-0.353607,0.095581,-0.140625,-0.407608,0.873413,9.35289
2019-01-28 21:45:21:4521,-0.353607,0.095581,-0.140625,-0.237717,0.355362,11.007523
2019-01-28 21:45:21:4521,-0.353607,0.095581,-0.140625,-0.155167,-0.120819,13.188583
2019-01-28 21:45:21:4521,-0.353607,0.095581,-0.140625,0.514832,0.032333,12.448013
2019-01-28 21:45:21:4521,-0.353607,0.095581,-0.140625,-0.321472,0.659256,10.60553
2019-01-28 21:45:21:4521,-0.353607,0.095581,-0.140625,-0.265244,1.117477,9.76088
2019-01-28 21:45:21:4521,-0.353607,0.095581,-0.140625,-0.187469,1.545792,9.76326
2019-01-28 21:45:21:4521,-0.353607,0.095581,-0.140625,-0.311905,1.60083,9.63884
2019-01-28 21:45:21:4521,0.239349,-0.003616,-0.001526,-0.311905,1.60083,9.63884
2019-01-28 21:45:21:4521,0.239349,-0.003616,-0.001526,-0.335831,1.159348,9.924774
2019-01-28 21:45:21:4521,0.239349,-0.003616,-0.001526,0.16188,0.750168,9.924774
2019-01-28 21:45:21:4521,0.239349,-0.003616,-0.001526,-0.173111,0.665237,10.160461
2019-01-28 21:45:21:4521,0.239349,-0.003616,-0.001526,-0.626556,0.734619,10.599548
2019-01-28 21:45:21:4521,0.239349,-0.003616,-0.001526,-0.741409,1.020569,10.222687
2019-01-28 21:45:21:4521,0.239349,-0.003616,-0.001526,-0.973511,1.125854,9.156677
2019-01-28 21:45:21:4521,0.239349,-0.003616,-0.001526,-0.561951,1.13063,8.404129
2019-01-28 21:45:21:4521,0.239349,-0.003616,-0.001526,-0.624161,1.219162,8.658966
2019-01-28 21:45:21:4521,0.239349,-0.003616,-0.001526,-0.279602,1.405807,9.026276
2019-01-28 21:45:21:4521,0.239349,-0.003616,-0.001526,-0.131241,1.582886,8.731949
2019-01-28 21:45:29:4529,0.239349,-0.003616,-0.001526,-0.39325,0.488159,10.396164
2019-01-28 21:45:29:4529,0.239349,-0.003616,-0.001526,-0.789261,0.886566,9.299057
2019-01-28 21:45:29:4529,0.239349,-0.003616,-0.001526,-1.040512,0.916489,8.623077
2019-01-28 21:45:29:4529,0.239349,-0.003616,-0.001526,-0.766541,0.525253,9.297852
2019-01-28 21:45:29:4529,0.239349,-0.003616,-0.001526,-0.237717,0.082581,10.162872
2019-01-28 21:45:29:4529,0.239349,-0.003616,-0.001526,-0.071411,-0.133972,10.860367
2019-01-28 21:45:29:4529,0.239349,-0.003616,-0.001526,-0.432739,-0.040665,10.771835
2019-01-28 21:45:29:4529,0.239349,-0.003616,-0.001526,-0.703125,0.234528,10.101837
2019-01-28 21:45:29:4529,0.239349,-0.003616,-0.001526,-0.814392,0.402023,9.655579
2019-01-28 21:45:29:4529,0.075027,-0.077713,0.090042,-0.814392,0.402023,9.655579
2019-01-28 21:45:29:4529,0.075027,-0.077713,0.090042,-0.621765,0.477386,9.832657
2019-01-28 21:45:29:4529,0.075027,-0.077713,0.090042,-0.535629,0.807602,9.821884
2019-01-28 21:45:29:4529,0.075027,-0.077713,0.090042,-0.735428,1.001419,9.275116
2019-01-28 21:45:29:4529,0.075027,-0.077713,0.090042,-0.628952,0.932037,8.779816
2019-01-28 21:45:29:4529,0.075027,-0.077713,0.090042,-0.335831,1.119873,9.43425
2019-01-28 21:45:29:4529,0.075027,-0.077713,0.090042,-0.144394,1.45726,9.313416
2019-01-28 21:45:29:4529,0.075027,-0.077713,0.090042,-0.122864,1.66304,8.371841
2019-01-28 21:45:29:4529,0.075027,-0.077713,0.090042,-0.122864,1.422562,7.916
2019-01-28 21:45:29:4529,0.075027,-0.077713,0.090042,-0.231735,0.71907,9.629272
2019-01-28 21:45:29:4529,0.075027,-0.077713,0.090042,0.143936,0.199829,11.964661
2019-01-28 21:45:30:4530,0.063904,-0.011063,0.05687,0.143936,0.199829,11.964661
2019-01-28 21:45:30:4530,0.063904,-0.011063,0.05687,-0.06424,0.409195,12.096268
2019-01-28 21:45:30:4530,0.063904,-0.011063,0.05687,-0.333435,1.197632,9.852997
2019-01-28 21:45:30:4530,0.063904,-0.011063,0.05687,-1.174515,1.898727,8.451996
2019-01-28 21:45:30:4530,0.063904,-0.011063,0.05687,-1.373108,1.448883,8.888687
2019-01-28 21:45:30:4530,0.063904,-0.011063,0.05687,-0.218582,0.439102,10.258575
2019-01-28 21:45:30:4530,0.063904,-0.011063,0.05687,0.341354,0.514481,10.52179
2019-01-28 21:45:30:4530,0.063904,-0.011063,0.05687,0.403564,1.19165,8.753494
2019-01-28 21:45:30:4530,0.063904,-0.011063,0.05687,-0.150375,1.564941,6.638229
2019-01-28 21:45:30:4530,0.063904,-0.011063,0.05687,-1.109909,1.517075,7.500839
2019-01-28 21:45:30:4530,0.048523,0.049225,-0.058273,-1.109909,1.517075,7.500839
2019-01-28 21:45:30:4530,0.048523,0.049225,-0.058273,-1.077606,0.847092,10.332748
2019-01-28 21:45:30:4530,0.048523,0.049225,-0.058273,-0.147995,0.222549,11.824677
2019-01-28 21:45:30:4530,0.048523,0.049225,-0.058273,0.088913,0.008408,11.803146
2019-01-28 21:45:30:4530,0.048523,0.049225,-0.058273,-0.35498,0.408005,11.277908
2019-01-28 21:45:30:4530,0.048523,0.049225,-0.058273,-0.956757,0.996643,10.457184
2019-01-28 21:45:30:4530,0.048523,0.049225,-0.058273,-0.960358,1.155762,9.687881
2019-01-28 21:45:30:4530,0.048523,0.049225,-0.058273,-0.276001,1.061234,8.94252
2019-01-28 21:45:30:4530,0.048523,0.049225,-0.058273,-0.042709,1.057648,8.328766
2019-01-28 21:45:30:4530,0.048523,0.049225,-0.058273,-0.138412,1.111496,8.268936
2019-01-28 21:45:30:4530,0.048523,0.049225,-0.058273,-0.240112,1.179688,8.597961
2019-01-28 21:45:30:4530,0.006241,0.014038,-0.07959,-0.240112,1.179688,8.597961
2019-01-28 21:45:30:4530,0.006241,0.014038,-0.07959,-0.555969,1.086365,9.47374
2019-01-28 21:45:30:4530,0.006241,0.014038,-0.07959,-1.127853,0.92485,10.142532
2019-01-28 21:45:30:4530,0.006241,0.014038,-0.07959,-1.151779,0.73941,10.447617
2019-01-28 21:45:30:4530,0.006241,0.014038,-0.07959,-0.728256,0.45108,10.672531
2019-01-28 21:45:30:4530,0.006241,0.014038,-0.07959,-0.132446,0.385269,10.204742
2019-01-28 21:45:30:4530,0.006241,0.014038,-0.07959,0.09848,0.628143,9.581406
2019-01-28 21:45:30:4530,0.006241,0.014038,-0.07959,-0.128845,1.176102,8.426865
2019-01-28 21:45:30:4530,0.006241,0.014038,-0.07959,-0.437515,1.70491,7.179016
2019-01-28 21:45:30:4530,0.006241,0.014038,-0.07959,0.088913,1.686966,6.778214
2019-01-28 21:45:30:4530,-0.229782,-0.073563,-0.115631,0.088913,1.686966,6.778214
2019-01-28 21:45:30:4530,-0.229782,-0.073563,-0.115631,0.854614,1.111496,7.509216
2019-01-28 21:45:30:4530,-0.229782,-0.073563,-0.115631,0.892899,0.404404,9.769241
2019-01-28 21:45:30:4530,-0.229782,-0.073563,-0.115631,0.636856,-0.033478,12.103439
2019-01-28 21:45:30:4530,-0.229782,-0.073563,-0.115631,0.238449,-0.118423,13.280716
2019-01-28 21:45:30:4530,-0.229782,-0.073563,-0.115631,-0.247284,-0.118423,12.997162
2019-01-28 21:45:30:4530,-0.229782,-0.073563,-0.115631,-0.666031,-0.004761,12.45639
2019-01-28 21:45:30:4530,-0.229782,-0.073563,-0.115631,-0.545197,0.062241,11.452591
2019-01-28 21:45:30:4530,-0.229782,-0.073563,-0.115631,-0.371719,0.075394,9.703445
2019-01-28 21:45:30:4530,0.143509,0.009079,-0.28508,-0.371719,0.075394,9.703445
2019-01-28 21:45:30:4530,0.143509,0.009079,-0.28508,-0.669632,0.277588,8.022476
2019-01-28 21:45:30:4530,0.143509,0.009079,-0.28508,-0.853882,0.672409,7.019897
2019-01-28 21:45:30:4530,0.143509,0.009079,-0.28508,-1.2798,0.961945,6.828461
2019-01-28 21:45:30:4530,0.143509,0.009079,-0.28508,-0.712692,0.92366,7.277115
2019-01-28 21:45:30:4530,0.143509,0.009079,-0.28508,-0.206619,0.601822,8.699646
2019-01-28 21:45:30:4530,0.143509,0.009079,-0.28508,0.064987,0.295547,10.927368
2019-01-28 21:45:30:4530,0.143509,0.009079,-0.28508,0.44783,0.224945,12.136932
2019-01-28 21:45:30:4530,0.143509,0.009079,-0.28508,-0.281998,0.745392,11.833054
2019-01-28 21:45:30:4530,0.143509,0.009079,-0.28508,-0.660049,1.304123,10.816101
2019-01-28 21:45:30:4530,0.143509,0.009079,-0.28508,-0.630142,1.214386,10.31839
2019-01-28 21:45:30:4530,-0.052277,-0.104645,-0.151184,-0.630142,1.214386,10.31839
2019-01-28 21:45:30:4530,-0.052277,-0.104645,-0.151184,-0.088165,0.794449,9.863754
2019-01-28 21:45:30:4530,-0.052277,-0.104645,-0.151184,0.020706,0.455856,9.723785
2019-01-28 21:45:30:4530,-0.052277,-0.104645,-0.151184,0.371262,0.084976,10.301636
2019-01-28 21:45:30:4530,-0.052277,-0.104645,-0.151184,0.191803,-0.076553,10.910614
2019-01-28 21:45:30:4530,-0.052277,-0.104645,-0.151184,-0.365738,0.050278,10.558868
2019-01-28 21:45:30:4530,-0.052277,-0.104645,-0.151184,-1.095551,0.623352,9.936737
2019-01-28 21:45:30:4530,-0.052277,-0.104645,-0.151184,-0.868225,0.990662,9.504837
2019-01-28 21:45:30:4530,-0.052277,-0.104645,-0.151184,-1.014191,1.53862,7.369247
2019-01-28 21:45:30:4530,-0.052277,-0.104645,-0.151184,-0.204224,1.322067,6.495865
2019-01-28 21:45:31:4531,-0.001328,-0.09964,-0.012039,-0.204224,1.322067,6.495865
2019-01-28 21:45:31:4531,-0.001328,-0.09964,-0.012039,0.26239,0.747787,7.274719
2019-01-28 21:45:31:4531,-0.001328,-0.09964,-0.012039,-0.174316,0.475006,9.204544
2019-01-28 21:45:31:4531,-0.001328,-0.09964,-0.012039,-1.405426,0.559952,10.575623
2019-01-28 21:45:31:4531,-0.001328,-0.09964,-0.012039,-1.237915,0.772903,11.131958
2019-01-28 21:45:31:4531,-0.001328,-0.09964,-0.012039,-0.120468,0.659256,11.410721
2019-01-28 21:45:31:4531,-0.001328,-0.09964,-0.012039,0.338959,0.475006,12.052002
2019-01-28 21:45:31:4531,-0.001328,-0.09964,-0.012039,0.027893,0.771713,11.585403
2019-01-28 21:45:31:4531,-0.001328,-0.09964,-0.012039,-0.354965,1.372314,10.015701
2019-01-28 21:45:31:4531,-0.001328,-0.09964,-0.012039,-0.628937,1.925049,7.770035
2019-01-28 21:45:31:4531,-0.001328,-0.09964,-0.012039,0.152313,1.692947,6.485092
2019-01-28 21:45:31:4531,0.194336,0.031815,-0.029572,0.152313,1.692947,6.485092
2019-01-28 21:45:31:4531,0.194336,0.031815,-0.029572,0.55072,0.793243,7.608536
2019-01-28 21:45:31:4531,0.194336,0.031815,-0.029572,0.354507,0.011993,10.603149
2019-01-28 21:45:31:4531,0.194336,0.031815,-0.029572,0.423904,0.045486,12.142929
2019-01-28 21:45:31:4531,0.194336,0.031815,-0.029572,-0.069031,0.830338,10.788589
2019-01-28 21:45:31:4531,0.194336,0.031815,-0.029572,-0.615784,1.939407,9.137543
2019-01-28 21:45:31:4531,0.194336,0.031815,-0.029572,-0.631332,2.19664,8.443619
2019-01-28 21:45:31:4531,0.194336,0.031815,-0.029572,-0.086975,1.907104,9.218887
2019-01-28 21:45:31:4531,0.194336,0.031815,-0.029572,-0.130051,2.191849,10.907028
2019-01-28 21:45:31:4531,0.194336,0.031815,-0.029572,-0.314285,2.884567,11.659576
2019-01-28 21:45:31:4531,0.195435,0.015869,-0.033112,-0.314285,2.884567,11.659576
2019-01-28 21:45:31:4531,0.195435,0.015869,-0.033112,0.102066,2.451477,10.184402
2019-01-28 21:45:31:4531,0.195435,0.015869,-0.033112,0.583023,1.054062,9.655579
2019-01-28 21:45:31:4531,0.195435,0.015869,-0.033112,1.114227,-0.015533,10.678513
2019-01-28 21:45:31:4531,0.195435,0.015869,-0.033112,1.666977,-0.148331,9.785995
2019-01-28 21:45:31:4531,0.195435,0.015869,-0.033112,0.6548,0.737015,7.181396
2019-01-28 21:45:31:4531,0.195435,0.015869,-0.033112,-0.993851,2.045883,4.854385
2019-01-28 21:45:31:4531,0.195435,0.015869,-0.033112,-1.449692,2.543594,6.000549
2019-01-28 21:45:31:4531,0.195435,0.015869,-0.033112,-0.674408,2.129639,9.149506
2019-01-28 21:45:31:4531,0.195435,0.015869,-0.033112,0.088898,1.695343,12.820099
2019-01-28 21:45:31:4531,0.195435,0.015869,-0.033112,0.231277,2.021957,14.321594
2019-01-28 21:45:31:4531,-0.090698,0.039139,-0.080566,0.231277,2.021957,14.321594
2019-01-28 21:45:31:4531,-0.090698,0.039139,-0.080566,-0.108505,2.501724,13.243622
2019-01-28 21:45:31:4531,-0.090698,0.039139,-0.080566,-0.070221,2.396439,10.722794
2019-01-28 21:45:31:4531,-0.090698,0.039139,-0.080566,-0.017578,1.960938,8.845612
2019-01-28 21:45:31:4531,-0.090698,0.039139,-0.080566,0.599777,1.442902,7.945908
2019-01-28 21:45:31:4531,-0.090698,0.039139,-0.080566,0.475342,1.056458,7.351303
2019-01-28 21:45:31:4531,-0.090698,0.039139,-0.080566,0.280334,0.898529,7.534348
2019-01-28 21:45:31:4531,-0.090698,0.039139,-0.080566,-0.165939,1.06723,8.125366
2019-01-28 21:45:31:4531,-0.090698,0.039139,-0.080566,-0.849091,1.39743,8.874329
2019-01-28 21:45:31:4531,-0.090698,0.039139,-0.080566,-0.858658,1.570908,9.739334
2019-01-28 21:45:31:4531,-0.109634,-0.009109,-0.048996,-0.858658,1.570908,9.739334
2019-01-28 21:45:31:4531,-0.109634,-0.009109,-0.048996,-0.760559,1.677399,10.473923
2019-01-28 21:45:31:4531,-0.109634,-0.009109,-0.048996,-0.693558,1.775497,10.740738
2019-01-28 21:45:31:4531,-0.109634,-0.009109,-0.048996,-0.326263,1.599625,10.484695
2019-01-28 21:45:31:4531,-0.109634,-0.009109,-0.048996,0.401169,1.311295,10.265747
2019-01-28 21:45:31:4531,-0.109634,-0.009109,-0.048996,0.376038,1.155762,9.801544
2019-01-28 21:45:31:4531,-0.109634,-0.009109,-0.048996,0.021912,1.122253,10.033646
2019-01-28 21:45:31:4531,-0.109634,-0.009109,-0.048996,-0.151581,1.398636,9.272736
2019-01-28 21:45:31:4531,-0.109634,-0.009109,-0.048996,-0.601425,1.830536,8.253387
2019-01-28 21:45:31:4531,-0.109634,-0.009109,-0.048996,0.466965,1.86882,8.764267
2019-01-28 21:45:31:4531,-0.109634,-0.009109,-0.048996,-0.447098,1.484772,9.334946
2019-01-28 21:45:32:4532,-0.14653,0.030533,-0.054306,-0.447098,1.484772,9.334946
2019-01-28 21:45:32:4532,-0.14653,0.030533,-0.054306,-0.699539,1.585281,9.936737
2019-01-28 21:45:32:4532,-0.14653,0.030533,-0.054306,-1.157761,1.749176,10.463165
2019-01-28 21:45:32:4532,-0.14653,0.030533,-0.054306,-0.776108,1.58049,9.610123
2019-01-28 21:45:32:4532,-0.14653,0.030533,-0.054306,-0.516495,1.385468,8.971237
2019-01-28 21:45:32:4532,-0.14653,0.030533,-0.054306,-0.624161,0.898529,10.205933
2019-01-28 21:45:32:4532,-0.14653,0.030533,-0.054306,1.197983,0.527649,10.654587
2019-01-28 21:45:32:4532,-0.14653,0.030533,-0.054306,-0.066635,0.734619,9.855377
2019-01-28 21:45:32:4532,-0.14653,0.030533,-0.054306,-0.420776,0.997833,9.55867
2019-01-28 21:45:32:4532,-0.14653,0.030533,-0.054306,-0.746201,0.98468,8.218689
2019-01-28 21:45:32:4532,-0.035294,0.017029,0.030167,-0.746201,0.98468,8.218689
2019-01-28 21:45:32:4532,-0.035294,0.017029,0.030167,-0.797638,0.847092,8.718796
2019-01-28 21:45:32:4532,-0.035294,0.017029,0.030167,0.330582,0.854263,10.837631
2019-01-28 21:45:32:4532,-0.035294,0.017029,0.030167,-0.747391,1.06842,10.216705
2019-01-28 21:45:32:4532,-0.035294,0.017029,0.030167,-1.353973,1.200027,9.748901
2019-01-28 21:45:32:4532,-0.035294,0.017029,0.030167,-1.164932,1.094742,10.335144
2019-01-28 21:45:32:4532,-0.035294,0.017029,0.030167,-0.898132,0.987061,11.088882
2019-01-28 21:45:32:4532,-0.035294,0.017029,0.030167,-0.576309,1.206009,10.99437
2019-01-28 21:45:32:4532,-0.035294,0.017029,0.030167,-0.524857,1.496735,9.943924
2019-01-28 21:45:32:4532,-0.035294,0.017029,0.030167,-0.565536,1.35556,8.996368
2019-01-28 21:45:32:4532,-0.035294,0.017029,0.030167,-0.656464,0.94519,9.456985
2019-01-28 21:45:32:4532,0.103683,0.079086,0.009644,-0.656464,0.94519,9.456985
2019-01-28 21:45:32:4532,0.103683,0.079086,0.009644,-0.400436,0.818375,9.948715
2019-01-28 21:45:32:4532,0.103683,0.079086,0.009644,-0.328644,0.953568,9.264359
2019-01-28 21:45:32:4532,0.103683,0.079086,0.009644,-0.320282,1.018173,8.813309
2019-01-28 21:45:32:4532,0.103683,0.079086,0.009644,-0.427948,0.912888,9.224884
2019-01-28 21:45:32:4532,0.103683,0.079086,0.009644,-0.334625,0.765732,9.72258
2019-01-28 21:45:32:4532,0.103683,0.079086,0.009644,0.030289,0.871017,9.72139
2019-01-28 21:45:32:4532,0.103683,0.079086,0.009644,-0.740219,1.164139,9.337341
2019-01-28 21:45:32:4532,0.103683,0.079086,0.009644,-0.339417,1.472809,8.917404
2019-01-28 21:45:32:4532,0.103683,0.079086,0.009644,-0.305923,1.473999,8.767853
2019-01-28 21:45:32:4532,-0.038101,-0.079117,0.038727,-0.305923,1.473999,8.767853
2019-01-28 21:45:32:4532,-0.038101,-0.079117,0.038727,-0.551178,1.244293,9.437836
2019-01-28 21:45:32:4532,-0.038101,-0.079117,0.038727,-1.030945,1.075607,10.584
2019-01-28 21:45:32:4532,-0.038101,-0.079117,0.038727,-0.667236,1.000229,11.067352
2019-01-28 21:45:32:4532,-0.038101,-0.079117,0.038727,-0.122864,1.019363,10.697662
2019-01-28 21:45:32:4532,-0.038101,-0.079117,0.038727,-0.206619,1.349579,10.308823
2019-01-28 21:45:32:4532,-0.038101,-0.079117,0.038727,-0.768921,1.762344,9.649612
2019-01-28 21:45:32:4532,-0.038101,-0.079117,0.038727,-1.385086,1.856857,8.493866
2019-01-28 21:45:32:4532,-0.038101,-0.079117,0.038727,-0.448288,2.3414,7.852585
2019-01-28 21:45:32:4532,-0.038101,-0.079117,0.038727,-1.322861,1.515884,8.529755
2019-01-28 21:45:32:4532,-0.038101,-0.079117,0.038727,-0.02356,1.008606,10.057571
2019-01-28 21:45:32:4532,-0.038101,-0.079117,0.038727,0.198975,1.00502,10.980011
2019-01-28 21:45:32:4532,-0.038101,-0.079117,0.038727,-0.234131,0.989456,10.679718
2019-01-28 21:45:32:4532,-0.038101,-0.079117,0.038727,0.154709,1.14978,10.044418
2019-01-28 21:45:32:4532,-0.038101,-0.079117,0.038727,-0.136017,1.306503,9.299057
2019-01-28 21:45:32:4532,-0.038101,-0.079117,0.038727,-0.841904,1.563736,8.012909
2019-01-28 21:45:32:4532,-0.038101,-0.079117,0.038727,-0.773712,1.548187,7.959076
2019-01-28 21:45:32:4532,-0.038101,-0.079117,0.038727,-0.158768,1.028946,7.99736
2019-01-28 21:45:32:4532,-0.038101,-0.079117,0.038727,-0.220978,0.585068,9.509628
2019-01-28 21:45:32:4532,-0.038101,-0.079117,0.038727,0.05899,0.586258,11.063766
2019-01-28 21:45:32:4532,-0.067596,-0.021454,0.035004,0.05899,0.586258,11.063766
2019-01-28 21:45:32:4532,-0.067596,-0.021454,0.035004,-0.08577,1.12944,11.393967
2019-01-28 21:45:32:4532,-0.067596,-0.021454,0.035004,-0.662445,1.72525,9.929565
2019-01-28 21:45:32:4532,-0.067596,-0.021454,0.035004,-0.114487,1.649887,9.071732
2019-01-28 21:45:32:4532,-0.067596,-0.021454,0.035004,-0.142014,1.133026,9.447403
2019-01-28 21:45:32:4532,-0.067596,-0.021454,0.035004,-0.552383,1.29454,9.72258
2019-01-28 21:45:32:4532,-0.067596,-0.021454,0.035004,-1.093155,1.734818,8.965256
2019-01-28 21:45:32:4532,-0.067596,-0.021454,0.035004,-0.331039,1.633118,8.51181
2019-01-28 21:45:33:4533,-0.067596,-0.021454,0.035004,-0.639709,1.195236,9.629272
2019-01-28 21:45:33:4533,-0.067596,-0.021454,0.035004,-0.776108,0.544388,11.112808
2019-01-28 21:45:33:4533,-0.067596,-0.021454,0.035004,0.255203,0.546783,11.386795
2019-01-28 21:45:33:4533,-0.005783,-0.010269,0.069016,0.255203,0.546783,11.386795
2019-01-28 21:45:33:4533,-0.005783,-0.010269,0.069016,0.319824,1.247879,10.08989
2019-01-28 21:45:33:4533,-0.005783,-0.010269,0.069016,-0.420776,2.025558,8.536942
2019-01-28 21:45:33:4533,-0.005783,-0.010269,0.069016,-0.694748,2.214584,7.619293
2019-01-28 21:45:33:4533,-0.005783,-0.010269,0.069016,-0.938812,1.646286,8.24501
2019-01-28 21:45:33:4533,-0.005783,-0.010269,0.069016,0.378433,0.951172,9.851791
2019-01-28 21:45:33:4533,-0.005783,-0.010269,0.069016,0.245636,0.90451,10.557678
2019-01-28 21:45:33:4533,-0.005783,-0.010269,0.069016,-0.491364,0.978699,10.160477
2019-01-28 21:45:33:4533,-0.005783,-0.010269,0.069016,-0.003235,0.818375,10.148514
2019-01-28 21:45:33:4533,-0.005783,-0.010269,0.069016,-0.101334,0.799225,10.146118
2019-01-28 21:45:33:4533,-0.03186,0.046341,0.032379,-0.101334,0.799225,10.146118
2019-01-28 21:45:33:4533,-0.03186,0.046341,0.032379,0.055405,0.908096,9.774033
2019-01-28 21:45:33:4533,-0.03186,0.046341,0.032379,-0.736633,1.00621,9.115997
2019-01-28 21:45:33:4533,-0.03186,0.046341,0.032379,-0.673218,1.093552,8.831253
2019-01-28 21:45:33:4533,-0.03186,0.046341,0.032379,-0.439911,1.380692,8.978424
2019-01-28 21:45:33:4533,-0.03186,0.046341,0.032379,-1.017776,1.731232,9.273926
2019-01-28 21:45:33:4533,-0.03186,0.046341,0.032379,-0.755768,1.557755,9.724976
2019-01-28 21:45:33:4533,-0.03186,0.046341,0.032379,-0.180298,0.449875,10.734741
2019-01-28 21:45:33:4533,-0.03186,0.046341,0.032379,0.326996,-0.291901,12.211121
2019-01-28 21:45:33:4533,-0.03186,0.046341,0.032379,0.050613,0.269226,11.230057
2019-01-28 21:45:33:4533,-0.03186,0.046341,0.032379,-0.279587,1.512299,8.746307
2019-01-28 21:45:33:4533,0.006134,0.12117,-0.040619,-0.279587,1.512299,8.746307
2019-01-28 21:45:33:4533,0.006134,0.12117,-0.040619,-1.266632,2.327042,6.864365
2019-01-28 21:45:33:4533,0.006134,0.12117,-0.040619,-1.863647,2.27919,7.145508
2019-01-28 21:45:33:4533,0.006134,0.12117,-0.040619,-0.917282,1.343597,9.10762
2019-01-28 21:45:33:4533,0.006134,0.12117,-0.040619,0.061386,0.004807,12.090286
2019-01-28 21:45:33:4533,0.006134,0.12117,-0.040619,0.415527,-0.541962,13.572632
2019-01-28 21:45:33:4533,0.006134,0.12117,-0.040619,0.09848,-0.014343,13.021088
2019-01-28 21:45:33:4533,0.006134,0.12117,-0.040619,0.018326,0.848282,10.554092
2019-01-28 21:45:33:4533,0.006134,0.12117,-0.040619,-0.201828,1.840103,8.199554
2019-01-28 21:45:33:4533,0.006134,0.12117,-0.040619,-1.888763,2.797241,6.481506
2019-01-28 21:45:33:4533,-0.043045,0.021179,0.003784,-1.888763,2.797241,6.481506
2019-01-28 21:45:33:4533,-0.043045,0.021179,0.003784,-1.453278,2.391647,6.576019
2019-01-28 21:45:33:4533,-0.043045,0.021179,0.003784,-0.088165,1.140198,9.133942
2019-01-28 21:45:33:4533,-0.043045,0.021179,0.003784,1.080734,-0.038269,11.783997
2019-01-28 21:45:33:4533,-0.043045,0.021179,0.003784,0.1595,-0.245239,11.864151
2019-01-28 21:45:33:4533,-0.043045,0.021179,0.003784,0.210938,-0.214142,11.183395
2019-01-28 21:45:33:4533,-0.043045,0.021179,0.003784,-0.238922,0.376892,9.714218
2019-01-28 21:45:33:4533,-0.043045,0.021179,0.003784,-1.215195,1.39743,8.115799
2019-01-28 21:45:33:4533,-0.043045,0.021179,0.003784,-1.150589,1.92865,6.781799
2019-01-28 21:45:33:4533,-0.043045,0.021179,0.003784,-1.180496,1.798233,6.814102
2019-01-28 21:45:33:4533,-0.043045,0.021179,0.003784,-1.117081,1.395035,8.345505
2019-01-28 21:45:33:4533,0.103195,0.023865,-0.172318,-1.117081,1.395035,8.345505
2019-01-28 21:45:33:4533,0.103195,0.023865,-0.172318,-0.413605,1.014587,9.873337
2019-01-28 21:45:33:4533,0.103195,0.023865,-0.172318,-0.005615,0.909302,10.6474
2019-01-28 21:45:33:4533,0.103195,0.023865,-0.172318,-0.436325,1.144989,10.936951
2019-01-28 21:45:33:4533,0.103195,0.023865,-0.172318,-0.262848,0.893738,11.062561
2019-01-28 21:45:33:4533,0.103195,0.023865,-0.172318,-0.095352,0.650879,11.387985
2019-01-28 21:45:33:4533,0.103195,0.023865,-0.172318,-0.140808,0.714279,10.60434
2019-01-28 21:45:33:4533,0.103195,0.023865,-0.172318,-0.372925,0.82196,9.872131
2019-01-28 21:45:33:4533,0.103195,0.023865,-0.172318,-0.201828,0.982285,9.837448
2019-01-28 21:45:33:4533,0.103195,0.023865,-0.172318,-0.295151,1.31369,9.437836
2019-01-28 21:45:34:4534,0.072952,-0.082474,-0.035065,-0.295151,1.31369,9.437836
2019-01-28 21:45:34:4534,0.072952,-0.082474,-0.035065,-1.091965,1.587662,9.12558
2019-01-28 21:45:34:4534,0.072952,-0.082474,-0.035065,-0.683975,1.686966,9.679504
2019-01-28 21:45:34:4534,0.072952,-0.082474,-0.035065,0.14035,1.611588,9.703445
2019-01-28 21:45:34:4534,0.072952,-0.082474,-0.035065,0.104462,1.265823,9.723785
2019-01-28 21:45:34:4534,0.072952,-0.082474,-0.035065,-0.39325,1.000229,10.280106
2019-01-28 21:45:34:4534,0.072952,-0.082474,-0.035065,-0.748581,0.957153,10.059967
2019-01-28 21:45:34:4534,0.072952,-0.082474,-0.035065,-0.047501,0.702316,10.33754
2019-01-28 21:45:34:4534,0.072952,-0.082474,-0.035065,0.414322,0.754959,10.190384
2019-01-28 21:45:34:4534,0.072952,-0.082474,-0.035065,-0.487762,1.182083,8.910217
2019-01-28 21:45:34:4534,0.072952,-0.082474,-0.035065,-1.024963,1.770721,7.986588
2019-01-28 21:45:34:4534,-0.02655,-0.078873,-0.100052,-1.024963,1.770721,7.986588
2019-01-28 21:45:34:4534,-0.02655,-0.078873,-0.100052,-0.028351,1.698929,8.248611
2019-01-28 21:45:34:4534,-0.02655,-0.078873,-0.100052,0.130783,0.90451,9.319397
2019-01-28 21:45:34:4534,-0.02655,-0.078873,-0.100052,0.669159,0.070618,11.359283
2019-01-28 21:45:34:4534,-0.02655,-0.078873,-0.100052,-0.334625,0.634125,11.977814
2019-01-28 21:45:34:4534,-0.02655,-0.078873,-0.100052,-0.889755,1.568527,10.184402
2019-01-28 21:45:34:4534,-0.02655,-0.078873,-0.100052,-0.821564,2.090149,8.998749
2019-01-28 21:45:34:4534,-0.02655,-0.078873,-0.100052,-0.191055,1.893951,8.852798
2019-01-28 21:45:34:4534,-0.02655,-0.078873,-0.100052,-0.390854,1.550583,9.215302
2019-01-28 21:45:34:4534,-0.02655,-0.078873,-0.100052,-0.918488,1.156952,9.608917
2019-01-28 21:45:34:4534,0.06575,-0.09024,0.013626,-0.918488,1.156952,9.608917
2019-01-28 21:45:34:4534,0.06575,-0.09024,0.013626,0.117615,0.704712,10.62468
2019-01-28 21:45:34:4534,0.06575,-0.09024,0.013626,0.30545,0.600632,10.388992
2019-01-28 21:45:34:4534,0.06575,-0.09024,0.013626,0.123611,0.772919,9.540726
2019-01-28 21:45:34:4534,0.06575,-0.09024,0.013626,-0.362152,1.213181,8.77861
2019-01-28 21:45:34:4534,0.06575,-0.09024,0.013626,-0.582291,1.471619,8.122986
2019-01-28 21:45:34:4534,0.06575,-0.09024,0.013626,-0.086975,1.505112,8.566849
2019-01-28 21:45:34:4534,0.06575,-0.09024,0.013626,0.026688,1.508698,9.179413
2019-01-28 21:45:34:4534,0.06575,-0.09024,0.013626,-0.261642,1.430939,9.471344
2019-01-28 21:45:34:4534,0.06575,-0.09024,0.013626,-0.141998,1.342407,10.247803
2019-01-28 21:45:34:4534,0.06575,-0.09024,0.013626,-0.02356,1.020569,10.942917
2019-01-28 21:45:34:4534,-0.007187,-0.043442,-0.01088,-0.02356,1.020569,10.942917
2019-01-28 21:45:34:4534,-0.007187,-0.043442,-0.01088,0.596191,0.630539,11.066147
2019-01-28 21:45:34:4534,-0.007187,-0.043442,-0.01088,0.916824,0.634125,10.555283
2019-01-28 21:45:34:4534,-0.007187,-0.043442,-0.01088,0.127197,1.066025,9.129166
2019-01-28 21:45:34:4534,-0.007187,-0.043442,-0.01088,-0.893356,1.397446,7.692276
2019-01-28 21:45:34:4534,-0.007187,-0.043442,-0.01088,-0.414795,1.387863,7.161072
2019-01-28 21:45:34:4534,-0.007187,-0.043442,-0.01088,-0.237717,1.39624,7.703033
2019-01-28 21:45:34:4534,-0.007187,-0.043442,-0.01088,-0.593063,1.459641,8.454391
2019-01-28 21:45:34:4534,-0.007187,-0.043442,-0.01088,-0.485382,1.341202,9.601746
2019-01-28 21:45:34:4534,-0.007187,-0.043442,-0.01088,-0.004425,0.98468,11.013504
2019-01-28 21:45:34:4534,-0.105911,-0.04747,0.047455,-0.004425,0.98468,11.013504
2019-01-28 21:45:34:4534,-0.105911,-0.04747,0.047455,0.025497,0.899734,12.349899
2019-01-28 21:45:34:4534,-0.105911,-0.04747,0.047455,-0.16713,1.231125,11.647614
2019-01-28 21:45:34:4534,-0.105911,-0.04747,0.047455,-0.512894,1.308899,10.199951
2019-01-28 21:45:34:4534,-0.105911,-0.04747,0.047455,-0.165939,1.021759,9.961868
2019-01-28 21:45:34:4534,-0.105911,-0.04747,0.047455,0.154709,1.110291,10.204742
2019-01-28 21:45:34:4534,-0.105911,-0.04747,0.047455,-0.296341,1.33522,9.437836
2019-01-28 21:45:34:4534,-0.105911,-0.04747,0.047455,-0.45546,1.310104,9.544312
2019-01-28 21:45:34:4534,-0.105911,-0.04747,0.047455,0.224106,1.160553,9.867355
2019-01-28 21:45:34:4534,-0.105911,-0.04747,0.047455,0.280334,0.930832,9.912811
2019-01-28 21:45:34:4534,-0.105911,-0.04747,0.047455,0.17984,0.890152,9.790787
2019-01-28 21:45:35:4535,-0.016098,0.062714,0.046112,0.17984,0.890152,9.790787
2019-01-28 21:45:35:4535,-0.016098,0.062714,0.046112,0.203766,1.081589,9.384003
2019-01-28 21:45:35:4535,-0.016098,0.062714,0.046112,-0.075012,0.815979,8.790573
2019-01-28 21:45:35:4535,-0.016098,0.062714,0.046112,-0.14679,0.230942,9.114807
2019-01-28 21:45:35:4535,-0.016098,0.062714,0.046112,0.265976,0.096939,9.45578
2019-01-28 21:45:35:4535,-0.016098,0.062714,0.046112,-0.022369,0.687958,8.601547
2019-01-28 21:45:35:4535,-0.016098,0.062714,0.046112,-0.753372,1.178497,8.021286
2019-01-28 21:45:35:4535,-0.016098,0.062714,0.046112,-0.672028,1.104309,8.14212
2019-01-28 21:45:35:4535,-0.016098,0.062714,0.046112,-0.124069,0.022766,9.526367
2019-01-28 21:45:35:4535,-0.016098,0.062714,0.046112,0.228882,-0.318222,10.9142
2019-01-28 21:45:35:4535,-0.232162,0.167847,-0.038605,0.228882,-0.318222,10.9142
2019-01-28 21:45:35:4535,-0.232162,0.167847,-0.038605,-0.253265,0.455856,10.143723
2019-01-28 21:45:35:4535,-0.232162,0.167847,-0.038605,-0.455475,1.296936,7.575027
2019-01-28 21:45:35:4535,-0.232162,0.167847,-0.038605,-1.2798,0.929642,6.427658
2019-01-28 21:45:35:4535,-0.232162,0.167847,-0.038605,-1.267838,-0.84465,8.874329
2019-01-28 21:45:35:4535,-0.232162,0.167847,-0.038605,-0.811996,-2.393997,12.166855
2019-01-28 21:45:35:4535,-0.232162,0.167847,-0.038605,0.023102,-2.727798,13.358475
2019-01-28 21:45:35:4535,-0.232162,0.167847,-0.038605,0.453812,-2.048233,12.704041
2019-01-28 21:45:35:4535,-0.232162,0.167847,-0.038605,-0.772522,-0.279938,11.907227
2019-01-28 21:45:35:4535,-0.232162,0.167847,-0.038605,-2.55159,2.482574,10.718002
2019-01-28 21:45:35:4535,-0.232162,0.167847,-0.038605,-3.586472,5.996445,9.389984
2019-01-28 21:45:35:4535,0.153656,-0.14772,-0.051071,-3.586472,5.996445,9.389984
2019-01-28 21:45:35:4535,0.153656,-0.14772,-0.051071,-4.269638,8.738617,10.432053
2019-01-28 21:45:35:4535,0.153656,-0.14772,-0.051071,-1.900726,1.483566,16.83046
2019-01-28 21:45:35:4535,0.153656,-0.14772,-0.051071,7.121414,-8.397598,26.618301
2019-01-28 21:45:35:4535,0.153656,-0.14772,-0.051071,8.29509,-8.019531,25.957886
2019-01-28 21:45:35:4535,0.153656,-0.14772,-0.051071,2.248428,-1.095901,11.906036
2019-01-28 21:45:35:4535,0.153656,-0.14772,-0.051071,-5.813004,5.515472,-3.004852
2019-01-28 21:45:35:4535,0.153656,-0.14772,-0.051071,-6.61937,5.217575,-4.334061
2019-01-28 21:45:35:4535,0.153656,-0.14772,-0.051071,-4.950378,4.304718,4.33754
2019-01-28 21:45:35:4535,0.153656,-0.14772,-0.051071,-0.936432,2.432327,8.422089
2019-01-28 21:45:35:4535,0.19104,0.102859,-0.129013,-0.936432,2.432327,8.422089
2019-01-28 21:45:35:4535,0.19104,0.102859,-0.129013,3.274948,0.082581,3.630447
2019-01-28 21:45:35:4535,0.19104,0.102859,-0.129013,3.906662,-0.959503,-0.687393
2019-01-28 21:45:35:4535,0.19104,0.102859,-0.129013,1.122604,-0.356522,1.663559
2019-01-28 21:45:35:4535,0.19104,0.102859,-0.129013,0.356903,0.299133,4.875916
2019-01-28 21:45:35:4535,0.19104,0.102859,-0.129013,1.195587,-1.68573,4.09108
2019-01-28 21:45:35:4535,0.19104,0.102859,-0.129013,2.711441,-3.938568,5.090073
2019-01-28 21:45:35:4535,0.19104,0.102859,-0.129013,0.250427,-1.820923,8.46875
2019-01-28 21:45:35:4535,0.19104,0.102859,-0.129013,-1.759552,0.61618,6.634644
2019-01-28 21:45:35:4535,0.19104,0.102859,-0.129013,-4.2146,0.265625,-0.535461
2019-01-28 21:45:35:4535,0.19104,0.102859,-0.129013,0.16188,2.096146,-1.895767
2019-01-28 21:45:35:4535,-0.26619,-0.078888,-0.165054,0.16188,2.096146,-1.895767
2019-01-28 21:45:35:4535,-0.26619,-0.078888,-0.165054,2.571457,3.700531,1.864548
2019-01-28 21:45:35:4535,-0.26619,-0.078888,-0.165054,-3.843704,0.80162,12.189575
2019-01-28 21:45:35:4535,-0.26619,-0.078888,-0.165054,-8.40802,1.13063,29.526779
2019-01-28 21:45:35:4535,-0.26619,-0.078888,-0.165054,0.596176,-2.574661,34.610336
2019-01-28 21:45:35:4535,-0.26619,-0.078888,-0.165054,0.626099,4.08577,28.801758
2019-01-28 21:45:35:4535,-0.26619,-0.078888,-0.165054,-7.680603,7.606812,23.463364
2019-01-28 21:45:35:4535,-0.26619,-0.078888,-0.165054,-4.361755,6.106506,18.779419
2019-01-28 21:45:35:4535,-0.26619,-0.078888,-0.165054,-0.753372,3.186066,14.169647
2019-01-28 21:45:35:4535,-0.26619,-0.078888,-0.165054,2.587021,-0.276352,10.280106
2019-01-28 21:45:35:4535,0.255417,-0.044662,-0.112885,2.587021,-0.276352,10.280106
2019-01-28 21:45:35:4535,0.255417,-0.044662,-0.112885,3.457993,-1.606766,6.284103
2019-01-28 21:45:35:4535,0.255417,-0.044662,-0.112885,1.937363,-0.492905,4.305237
2019-01-28 21:45:35:4535,0.255417,-0.044662,-0.112885,-0.523666,1.104309,3.375626
2019-01-28 21:45:35:4535,0.255417,-0.044662,-0.112885,-1.205612,2.372513,4.064758
2019-01-28 21:45:35:4535,0.255417,-0.044662,-0.112885,-1.228348,2.476593,5.616501
2019-01-28 21:45:35:4535,0.255417,-0.044662,-0.112885,-0.840714,1.508698,6.013702
2019-01-28 21:45:35:4535,0.255417,-0.044662,-0.112885,-0.164734,0.422363,6.081909
2019-01-28 21:45:35:4535,0.255417,-0.044662,-0.112885,0.124802,0.326645,5.804337
2019-01-28 21:45:35:4535,0.255417,-0.044662,-0.112885,0.511246,0.4104,4.579208
2019-01-28 21:45:35:4535,0.255417,-0.044662,-0.112885,-0.414795,0.552765,5.562668
2019-01-28 21:45:36:4536,-0.12294,-0.054871,-0.02211,-0.414795,0.552765,5.562668
2019-01-28 21:45:36:4536,-0.12294,-0.054871,-0.02211,-0.883774,0.637711,8.632645
2019-01-28 21:45:36:4536,-0.12294,-0.054871,-0.02211,-0.596634,0.617371,10.658173
2019-01-28 21:45:36:4536,-0.12294,-0.054871,-0.02211,0.256409,0.833923,11.908432
2019-01-28 21:45:36:4536,-0.12294,-0.054871,-0.02211,0.264771,1.302917,11.42627
2019-01-28 21:45:36:4536,-0.12294,-0.054871,-0.02211,-0.204224,1.576904,10.566055
2019-01-28 21:45:36:4536,-0.12294,-0.054871,-0.02211,-0.559555,1.814972,9.748901
2019-01-28 21:45:36:4536,-0.12294,-0.054871,-0.02211,-0.438721,2.027939,8.139725
2019-01-28 21:45:36:4536,-0.12294,-0.054871,-0.02211,-0.049881,1.730042,6.714798
2019-01-28 21:45:36:4536,-0.12294,-0.054871,-0.02211,-0.347794,1.380692,7.022278
2019-01-28 21:45:36:4536,-0.338516,0.091858,0.014969,-0.347794,1.380692,7.022278
2019-01-28 21:45:36:4536,-0.338516,0.091858,0.014969,-0.335831,1.238312,8.958084
2019-01-28 21:45:36:4536,-0.338516,0.091858,0.014969,-0.225754,1.331635,9.872131
2019-01-28 21:45:36:4536,-0.338516,0.091858,0.014969,-0.613388,1.354355,10.278915
2019-01-28 21:45:36:4536,-0.338516,0.091858,0.014969,-0.351379,0.934418,11.450195
2019-01-28 21:45:36:4536,-0.338516,0.091858,0.014969,-0.035522,0.849472,12.852386
2019-01-28 21:45:36:4536,-0.338516,0.091858,0.014969,0.316223,0.80162,12.717209
2019-01-28 21:45:36:4536,-0.338516,0.091858,0.014969,0.336563,0.973907,11.660767
2019-01-28 21:45:36:4536,-0.338516,0.091858,0.014969,-0.417175,0.996643,10.435638
2019-01-28 21:45:36:4536,-0.338516,0.091858,0.014969,-0.752182,0.588654,10.093475
2019-01-28 21:45:36:4536,-0.338516,0.091858,0.014969,-0.085785,0.299133,10.573227
2019-01-28 21:45:36:4536,-0.338516,0.091858,0.014969,-0.054672,0.318268,9.94751
2019-01-28 21:45:36:4536,-0.338516,0.091858,0.014969,-0.607407,0.531235,9.265549
2019-01-28 21:45:36:4536,-0.338516,0.091858,0.014969,-0.262848,0.397232,9.879318
2019-01-28 21:45:36:4536,-0.338516,0.091858,0.014969,-0.388474,0.116074,10.4823
2019-01-28 21:45:36:4536,-0.338516,0.091858,0.014969,-0.244904,-0.038269,9.589783
2019-01-28 21:45:36:4536,-0.338516,0.091858,0.014969,-0.764145,-0.143555,9.180603
2019-01-28 21:45:36:4536,-0.338516,0.091858,0.014969,-1.125458,-0.088516,9.059769
2019-01-28 21:45:36:4536,-0.338516,0.091858,0.014969,-0.443497,-0.08493,8.436447
2019-01-28 21:45:36:4536,-0.338516,0.091858,0.014969,-0.243698,-0.096893,8.789383
2019-01-28 21:45:36:4536,-0.017639,0.075851,-0.121567,-0.243698,-0.096893,8.789383
2019-01-28 21:45:36:4536,-0.017639,0.075851,-0.121567,-0.778503,-0.081345,9.467743
2019-01-28 21:45:36:4536,-0.017639,0.075851,-0.121567,-0.047501,0.096939,9.155487
2019-01-28 21:45:36:4536,-0.017639,0.075851,-0.121567,-0.384888,0.258453,9.857773
2019-01-28 21:45:36:4536,-0.017639,0.075851,-0.121567,-0.644501,0.172302,10.259766
2019-01-28 21:45:36:4536,-0.017639,0.075851,-0.121567,-0.415985,0.094543,9.903244
2019-01-28 21:45:36:4536,-0.017639,0.075851,-0.121567,-0.156357,0.013184,10.055176
2019-01-28 21:45:36:4536,-0.017639,0.075851,-0.121567,-0.396851,0.421158,10.23465
2019-01-28 21:45:36:4536,-0.017639,0.075851,-0.121567,-1.088364,0.853073,10.54451
2019-01-28 21:45:36:4536,-0.017639,0.075851,-0.121567,-1.024963,0.467819,9.540726
2019-01-28 21:45:36:4536,-0.017639,0.075851,-0.121567,-0.408813,0.046692,9.068146
2019-01-28 21:45:36:4536,0.133301,0.053802,-0.048874,-0.408813,0.046692,9.068146
2019-01-28 21:45:36:4536,0.133301,0.053802,-0.048874,-0.610992,0.393646,9.416306
2019-01-28 21:45:36:4536,0.133301,0.053802,-0.048874,-1.338425,1.013382,9.699844
2019-01-28 21:45:36:4536,0.133301,0.053802,-0.048874,-0.832336,1.161743,9.979813
2019-01-28 21:45:36:4536,0.133301,0.053802,-0.048874,-0.180298,0.92366,10.829254
2019-01-28 21:45:36:4536,0.133301,0.053802,-0.048874,-0.345398,0.713089,12.377426
2019-01-28 21:45:36:4536,0.133301,0.053802,-0.048874,-0.402832,1.134232,13.291473
2019-01-28 21:45:36:4536,0.133301,0.053802,-0.048874,0.252823,0.354172,13.019897
2019-01-28 21:45:36:4536,0.133301,0.053802,-0.048874,1.798569,-0.833878,11.612915
2019-01-28 21:45:36:4536,0.133301,0.053802,-0.048874,0.758896,-0.687912,10.073135
2019-01-28 21:45:37:4537,0.222931,-0.117599,0.116425,0.758896,-0.687912,10.073135
2019-01-28 21:45:37:4537,0.222931,-0.117599,0.116425,-1.154175,0.869812,7.460175
2019-01-28 21:45:37:4537,0.222931,-0.117599,0.116425,-2.082596,2.047089,4.572037
2019-01-28 21:45:37:4537,0.222931,-0.117599,0.116425,-1.370728,2.185867,3.378006
2019-01-28 21:45:37:4537,0.222931,-0.117599,0.116425,0.014725,1.344788,4.561264
2019-01-28 21:45:37:4537,0.222931,-0.117599,0.116425,-0.091751,0.440308,7.186188
2019-01-28 21:45:37:4537,0.222931,-0.117599,0.116425,-0.502121,0.573105,10.879517
2019-01-28 21:45:37:4537,0.222931,-0.117599,0.116425,-0.39325,1.070816,12.170441
2019-01-28 21:45:37:4537,0.222931,-0.117599,0.116425,0.295883,1.099533,11.96347
2019-01-28 21:45:37:4537,0.222931,-0.117599,0.116425,1.422897,0.358948,12.535339
2019-01-28 21:45:37:4537,0.222931,-0.117599,0.116425,1.414536,0.260834,13.547516
2019-01-28 21:45:37:4537,0.065323,-0.089325,0.096573,1.414536,0.260834,13.547516
2019-01-28 21:45:37:4537,0.065323,-0.089325,0.096573,-0.088181,0.827942,12.558075
2019-01-28 21:45:37:4537,0.065323,-0.089325,0.096573,-0.811996,1.769516,9.204529
2019-01-28 21:45:37:4537,0.065323,-0.089325,0.096573,-1.121872,2.488556,6.126175
2019-01-28 21:45:37:4537,0.065323,-0.089325,0.096573,-1.387482,2.73024,4.264557
2019-01-28 21:45:37:4537,0.065323,-0.089325,0.096573,-0.645706,2.580688,4.027664
2019-01-28 21:45:37:4537,0.065323,-0.089325,0.096573,-0.060654,2.136826,4.930954
2019-01-28 21:45:37:4537,0.065323,-0.089325,0.096573,-0.127655,1.043304,7.44223
2019-01-28 21:45:37:4537,0.065323,-0.089325,0.096573,0.440643,0.263245,11.459778
2019-01-28 21:45:37:4537,0.065323,-0.089325,0.096573,0.740952,0.223755,13.499664
2019-01-28 21:45:37:4537,-0.094299,0.062775,-0.006912,0.740952,0.223755,13.499664
2019-01-28 21:45:37:4537,-0.094299,0.062775,-0.006912,0.780426,0.626938,12.981613
2019-01-28 21:45:37:4537,-0.094299,0.062775,-0.006912,-0.008011,0.734619,11.852188
2019-01-28 21:45:37:4537,-0.094299,0.062775,-0.006912,-0.382492,1.024155,11.048203
2019-01-28 21:45:37:4537,-0.094299,0.062775,-0.006912,-0.785675,1.825745,10.538544
2019-01-28 21:45:37:4537,-0.094299,0.062775,-0.006912,-1.117081,2.133224,9.508423
2019-01-28 21:45:37:4537,-0.094299,0.062775,-0.006912,-1.096741,1.72644,7.843018
2019-01-28 21:45:37:4537,-0.094299,0.062775,-0.006912,-1.107513,1.444092,8.003342
2019-01-28 21:45:37:4537,-0.094299,0.062775,-0.006912,-0.526047,0.989456,9.405533
2019-01-28 21:45:37:4537,-0.094299,0.062775,-0.006912,1.081924,0.251282,10.610321
2019-01-28 21:45:37:4537,-0.094299,0.062775,-0.006912,0.910843,-0.30986,11.399948
2019-01-28 21:45:37:4537,-0.139862,0.031754,-0.082596,0.910843,-0.30986,11.399948
2019-01-28 21:45:37:4537,-0.139862,0.031754,-0.082596,-0.082184,0.111298,11.774429
2019-01-28 21:45:37:4537,-0.139862,0.031754,-0.082596,-1.641113,0.607803,10.765854
2019-01-28 21:45:37:4537,-0.139862,0.031754,-0.082596,-0.600235,0.309891,9.632858
2019-01-28 21:45:37:4537,-0.139862,0.031754,-0.082596,-0.297546,0.301514,10.321991
2019-01-28 21:45:37:4537,-0.139862,0.031754,-0.082596,-0.721069,1.044495,10.000153
2019-01-28 21:45:37:4537,-0.139862,0.031754,-0.082596,-1.191269,1.927444,8.559677
2019-01-28 21:45:37:4537,-0.139862,0.031754,-0.082596,-1.459259,1.957352,7.598953
2019-01-28 21:45:37:4537,-0.139862,0.031754,-0.082596,-0.677994,1.363937,8.198349
2019-01-28 21:45:37:4537,-0.139862,0.031754,-0.082596,0.645233,0.561142,9.726181
2019-01-28 21:45:37:4537,-0.026917,-0.035873,0.039154,0.645233,0.561142,9.726181
2019-01-28 21:45:37:4537,-0.026917,-0.035873,0.039154,0.585419,-0.063385,11.391586
2019-01-28 21:45:37:4537,-0.026917,-0.035873,0.039154,-0.433929,0.268021,12.011322
2019-01-28 21:45:37:4537,-0.026917,-0.035873,0.039154,-0.785675,0.981079,11.335342
2019-01-28 21:45:37:4537,-0.026917,-0.035873,0.039154,-0.865829,1.392654,10.294464
2019-01-28 21:45:37:4537,-0.026917,-0.035873,0.039154,-0.628952,1.069626,10.089874
2019-01-28 21:45:37:4537,-0.026917,-0.035873,0.039154,-0.142014,0.465424,10.381805
2019-01-28 21:45:37:4537,-0.026917,-0.035873,0.039154,-0.399231,0.469025,9.799149
2019-01-28 21:45:37:4537,-0.026917,-0.035873,0.039154,-0.39325,0.929642,8.241425
2019-01-28 21:45:37:4537,-0.026917,-0.035873,0.039154,-0.193451,1.107895,7.758072
2019-01-28 21:45:37:4537,-0.026917,-0.035873,0.039154,-0.301132,1.072006,7.742523
2019-01-28 21:45:37:4537,-0.070236,-0.007217,0.061508,-0.301132,1.072006,7.742523
2019-01-28 21:45:37:4537,-0.070236,-0.007217,0.061508,-0.815582,0.728638,8.087097
2019-01-28 21:45:37:4537,-0.070236,-0.007217,0.061508,-0.025955,-0.028702,9.769241
2019-01-28 21:45:37:4537,-0.070236,-0.007217,0.061508,0.431076,-0.585022,10.505035
2019-01-28 21:45:37:4537,-0.070236,-0.007217,0.061508,-0.094147,-0.607758,10.629471
2019-01-28 21:45:38:4538,-0.070236,-0.007217,0.061508,-0.744995,-0.045441,10.467941
2019-01-28 21:45:38:4538,-0.070236,-0.007217,0.061508,-0.730652,0.857849,9.24881
2019-01-28 21:45:38:4538,-0.070236,-0.007217,0.061508,-1.173309,1.246689,8.076324
2019-01-28 21:45:38:4538,-0.070236,-0.007217,0.061508,-1.527451,0.942795,9.190186
2019-01-28 21:45:38:4538,-0.070236,-0.007217,0.061508,-1.365936,0.093353,10.752686
2019-01-28 21:45:38:4538,-0.060211,0.073288,0.093277,-1.365936,0.093353,10.752686
2019-01-28 21:45:38:4538,-0.060211,0.073288,0.093277,-0.686386,-0.64006,11.416702
2019-01-28 21:45:38:4538,-0.060211,0.073288,0.093277,0.259995,-0.497681,11.392776
2019-01-28 21:45:38:4538,-0.060211,0.073288,0.093277,-0.108505,-0.162689,10.648605
2019-01-28 21:45:38:4538,-0.060211,0.073288,0.093277,-0.284378,0.228546,10.25618
2019-01-28 21:45:38:4538,-0.060211,0.073288,0.093277,-0.956772,0.198639,9.348114
2019-01-28 21:45:38:4538,-0.060211,0.073288,0.093277,-0.651672,-0.223709,9.082504
2019-01-28 21:45:38:4538,-0.060211,0.073288,0.093277,-0.054672,-0.232086,9.092072
2019-01-28 21:45:38:4538,-0.060211,0.073288,0.093277,-0.295151,-0.307465,8.848007
2019-01-28 21:45:38:4538,-0.060211,0.073288,0.093277,-0.134827,-0.352921,9.159073
2019-01-28 21:45:38:4538,0.089264,0.114944,0.013809,-0.134827,-0.352921,9.159073
2019-01-28 21:45:38:4538,0.089264,0.114944,0.013809,-1.367126,-0.177048,8.815704
2019-01-28 21:45:38:4538,0.089264,0.114944,0.013809,-1.447296,-0.141159,9.494064
2019-01-28 21:45:38:4538,0.089264,0.114944,0.013809,-0.753372,-0.446243,11.123581
2019-01-28 21:45:38:4538,0.089264,0.114944,0.013809,-0.078598,-0.6604,11.319794
2019-01-28 21:45:38:4538,0.089264,0.114944,0.013809,-0.548798,-0.070572,9.521591
2019-01-28 21:45:38:4538,0.089264,0.114944,0.013809,-0.863434,0.046692,9.852997
2019-01-28 21:45:38:4538,0.089264,0.114944,0.013809,-0.628952,-0.025101,9.666351
2019-01-28 21:45:38:4538,0.089264,0.114944,0.013809,-0.776108,0.61618,9.403137
2019-01-28 21:45:38:4538,0.089264,0.114944,0.013809,-1.252274,1.25267,9.663956
2019-01-28 21:45:38:4538,0.089264,0.114944,0.013809,-1.476013,1.286163,9.605331
2019-01-28 21:45:38:4538,0.163239,-0.075867,-0.036591,-1.476013,1.286163,9.605331
2019-01-28 21:45:38:4538,0.163239,-0.075867,-0.036591,-0.542801,1.042099,10.25499
2019-01-28 21:45:38:4538,0.163239,-0.075867,-0.036591,-0.274811,1.15097,11.505234
2019-01-28 21:45:38:4538,0.163239,-0.075867,-0.036591,-0.082184,1.221558,11.525574
2019-01-28 21:45:38:4538,0.163239,-0.075867,-0.036591,0.275543,0.794449,10.059967
2019-01-28 21:45:38:4538,0.163239,-0.075867,-0.036591,-0.0439,0.447479,9.567047
2019-01-28 21:45:38:4538,0.163239,-0.075867,-0.036591,0.209747,0.332626,9.780014
2019-01-28 21:45:38:4538,0.163239,-0.075867,-0.036591,0.021912,0.614975,9.149506
2019-01-28 21:45:38:4538,0.163239,-0.075867,-0.036591,-0.975906,1.209595,8.322784
2019-01-28 21:45:38:4538,0.163239,-0.075867,-0.036591,-1.100342,1.281387,7.608521
2019-01-28 21:45:38:4538,-0.113297,-0.171783,-0.189728,-1.100342,1.281387,7.608521
2019-01-28 21:45:38:4538,-0.113297,-0.171783,-0.189728,-0.410004,0.817169,7.480515
2019-01-28 21:45:38:4538,-0.113297,-0.171783,-0.189728,-0.322662,0.589859,8.85997
2019-01-28 21:45:38:4538,-0.113297,-0.171783,-0.189728,-0.445892,0.697525,9.498856
2019-01-28 21:45:38:4538,-0.113297,-0.171783,-0.189728,-0.063049,0.934418,9.547913
2019-01-28 21:45:38:4538,-0.113297,-0.171783,-0.189728,-0.159958,0.843491,10.210724
2019-01-28 21:45:38:4538,-0.113297,-0.171783,-0.189728,-0.103729,0.573105,11.300644
2019-01-28 21:45:38:4538,-0.113297,-0.171783,-0.189728,-0.353775,0.673599,11.675125
2019-01-28 21:45:38:4538,-0.113297,-0.171783,-0.189728,-0.378891,0.692749,10.106628
2019-01-28 21:45:38:4538,-0.113297,-0.171783,-0.189728,0.20018,1.281372,8.503433
2019-01-28 21:45:38:4538,-0.113297,-0.171783,-0.189728,-0.625351,1.854462,8.836044
2019-01-28 21:45:38:4538,-0.113297,-0.171783,-0.189728,-0.905319,1.320862,9.520386
2019-01-28 21:45:38:4538,-0.113297,-0.171783,-0.189728,-0.420776,0.948776,9.102844
2019-01-28 21:45:38:4538,-0.113297,-0.171783,-0.189728,-0.27002,0.844696,9.356491
2019-01-28 21:45:38:4538,-0.113297,-0.171783,-0.189728,-0.375305,0.762146,9.568253
2019-01-28 21:45:38:4538,-0.118668,-0.098969,-0.029007,-0.375305,0.762146,9.568253
2019-01-28 21:45:38:4538,-0.118668,-0.098969,-0.029007,0.012329,0.382889,9.285889
2019-01-28 21:45:38:4538,-0.118668,-0.098969,-0.029007,0.254013,-0.307465,9.648407
2019-01-28 21:45:38:4538,-0.118668,-0.098969,-0.029007,-0.187469,-0.165085,10.332764
2019-01-28 21:45:39:4539,-0.118668,-0.098969,-0.029007,-0.346603,0.108902,9.802734
2019-01-28 21:45:39:4539,-0.118668,-0.098969,-0.029007,0.256409,0.348175,9.449799
2019-01-28 21:45:39:4539,-0.118668,-0.098969,-0.029007,-0.12645,0.766922,8.938934
2019-01-28 21:45:39:4539,-0.118668,-0.098969,-0.029007,-1.352783,0.910492,8.596756
2019-01-28 21:45:39:4539,-0.118668,-0.098969,-0.029007,-1.093155,0.388855,9.14711
2019-01-28 21:45:39:4539,-0.118668,-0.098969,-0.029007,0.456207,-0.406754,10.654587
2019-01-28 21:45:39:4539,-0.021851,-0.077286,0.023392,0.456207,-0.406754,10.654587
2019-01-28 21:45:39:4539,-0.021851,-0.077286,0.023392,0.498077,-0.607758,11.973038
2019-01-28 21:45:39:4539,-0.021851,-0.077286,0.023392,-0.264038,0.118469,10.978821
2019-01-28 21:45:39:4539,-0.021851,-0.077286,0.023392,-0.968719,0.678391,8.895859
2019-01-28 21:45:39:4539,-0.021851,-0.077286,0.023392,-1.237915,0.686768,8.266541
2019-01-28 21:45:39:4539,-0.021851,-0.077286,0.023392,-0.418381,0.569519,8.457977
2019-01-28 21:45:39:4539,-0.021851,-0.077286,0.023392,0.008743,0.344589,8.770233
2019-01-28 21:45:39:4539,-0.021851,-0.077286,0.023392,-0.013992,0.153168,9.622086
2019-01-28 21:45:39:4539,-0.021851,-0.077286,0.023392,-0.461456,0.147186,9.98819
2019-01-28 21:45:39:4539,-0.021851,-0.077286,0.023392,-0.149185,0.486969,10.02887
2019-01-28 21:45:39:4539,-0.021851,-0.077286,0.023392,0.074554,0.78009,10.332748
2019-01-28 21:45:39:4539,-0.037552,-0.059937,0.170471,0.074554,0.78009,10.332748
2019-01-28 21:45:39:4539,-0.037552,-0.059937,0.170471,0.085312,0.458252,10.034851
2019-01-28 21:45:39:4539,-0.037552,-0.059937,0.170471,0.40834,-0.154312,10.074326
2019-01-28 21:45:39:4539,-0.037552,-0.059937,0.170471,-0.165939,0.084961,10.629471
2019-01-28 21:45:39:4539,-0.037552,-0.059937,0.170471,-0.185074,0.795639,10.404541
2019-01-28 21:45:39:4539,-0.037552,-0.059937,0.170471,-0.192261,0.892548,9.797958
2019-01-28 21:45:39:4539,-0.037552,-0.059937,0.170471,-0.08577,0.868622,9.867355
2019-01-28 21:45:39:4539,-0.037552,-0.059937,0.170471,-0.303528,0.981079,10.220291
2019-01-28 21:45:39:4539,-0.037552,-0.059937,0.170471,-0.313095,0.970322,9.981003
2019-01-28 21:45:39:4539,-0.037552,-0.059937,0.170471,-0.142014,0.826752,10.371033
2019-01-28 21:45:39:4539,0.156143,-0.008987,0.145676,-0.142014,0.826752,10.371033
2019-01-28 21:45:39:4539,0.156143,-0.008987,0.145676,0.459793,0.777695,9.985794
2019-01-28 21:45:39:4539,0.156143,-0.008987,0.145676,0.024307,0.928436,9.12677
2019-01-28 21:45:39:4539,0.156143,-0.008987,0.145676,0.171463,0.662842,9.155487
2019-01-28 21:45:39:4539,0.156143,-0.008987,0.145676,0.329376,0.373306,8.911407
2019-01-28 21:45:39:4539,0.156143,-0.008987,0.145676,0.054214,0.47261,8.684097
2019-01-28 21:45:39:4539,0.156143,-0.008987,0.145676,0.593796,0.309906,9.142319
2019-01-28 21:45:39:4539,0.156143,-0.008987,0.145676,0.504059,0.382874,9.521591
2019-01-28 21:45:39:4539,0.156143,-0.008987,0.145676,-0.108505,1.039703,9.021484
2019-01-28 21:45:39:4539,0.156143,-0.008987,0.145676,-0.797638,1.182083,9.278717
2019-01-28 21:45:39:4539,0.156143,-0.008987,0.145676,-0.338226,0.485764,9.998947
2019-01-28 21:45:39:4539,-0.058563,0.04628,0.024002,-0.338226,0.485764,9.998947
2019-01-28 21:45:39:4539,-0.058563,0.04628,0.024002,0.209747,-0.232086,11.271927
2019-01-28 21:45:39:4539,-0.058563,0.04628,0.024002,0.196579,-0.24884,12.089081
2019-01-28 21:45:39:4539,-0.058563,0.04628,0.024002,-0.126465,0.125656,11.261169
2019-01-28 21:45:39:4539,-0.058563,0.04628,0.024002,-0.136017,0.452271,9.522781
2019-01-28 21:45:39:4539,-0.058563,0.04628,0.024002,-0.27002,0.832733,8.05957
2019-01-28 21:45:39:4539,-0.058563,0.04628,0.024002,-0.499741,1.142609,8.211517
2019-01-28 21:45:39:4539,-0.058563,0.04628,0.024002,-0.296341,1.04689,8.918594
2019-01-28 21:45:39:4539,-0.058563,0.04628,0.024002,-0.131241,0.278793,9.185394
2019-01-28 21:45:39:4539,-0.058563,0.04628,0.024002,0.3246,-0.793198,10.134155
2019-01-28 21:45:39:4539,-0.104065,0.115372,0.035126,0.3246,-0.793198,10.134155
2019-01-28 21:45:39:4539,-0.104065,0.115372,0.035126,0.685913,-1.094696,10.982407
2019-01-28 21:45:39:4539,-0.104065,0.115372,0.035126,0.133163,-0.415131,10.342316
2019-01-28 21:45:39:4539,-0.104065,0.115372,0.035126,-0.291565,0.074203,8.895859
2019-01-28 21:45:39:4539,-0.104065,0.115372,0.035126,-0.541611,0.021561,8.363464
2019-01-28 21:45:39:4539,-0.104065,0.115372,0.035126,-0.552383,0.215378,9.629257
2019-01-28 21:45:39:4539,-0.104065,0.115372,0.035126,-0.219772,0.228546,10.904633
2019-01-28 21:45:39:4539,-0.104065,0.115372,0.035126,0.14035,-0.147141,11.256378
2019-01-28 21:45:39:4539,-0.104065,0.115372,0.035126,0.803162,-0.471375,11.32457
2019-01-28 21:45:39:4539,-0.104065,0.115372,0.035126,0.38681,-0.489319,10.601944
2019-01-28 21:45:39:4539,-0.104065,0.115372,0.035126,0.151123,-0.101669,9.485687
2019-01-28 21:45:40:4540,0.028244,0.04953,-0.075989,0.151123,-0.101669,9.485687
2019-01-28 21:45:40:4540,0.028244,0.04953,-0.075989,-0.554779,0.338608,8.546509
2019-01-28 21:45:40:4540,0.028244,0.04953,-0.075989,-0.584686,0.537216,8.619492
2019-01-28 21:45:40:4540,0.028244,0.04953,-0.075989,-0.301132,0.252472,9.190186
2019-01-28 21:45:40:4540,0.028244,0.04953,-0.075989,0.26358,-0.241653,9.736938
2019-01-28 21:45:40:4540,0.028244,0.04953,-0.075989,-0.095352,-0.180634,9.772827
2019-01-28 21:45:40:4540,0.028244,0.04953,-0.075989,-0.669632,0.131638,10.662964
2019-01-28 21:45:40:4540,0.028244,0.04953,-0.075989,-0.037918,-0.123215,11.411911
2019-01-28 21:45:40:4540,0.028244,0.04953,-0.075989,0.22171,-0.362488,11.392776
2019-01-28 21:45:40:4540,0.028244,0.04953,-0.075989,-0.317886,0.063431,11.263565
2019-01-28 21:45:40:4540,0.114365,-0.017365,-0.069336,-0.317886,0.063431,11.263565
2019-01-28 21:45:40:4540,0.114365,-0.017365,-0.069336,-0.590668,0.782471,10.817307
2019-01-28 21:45:40:4540,0.114365,-0.017365,-0.069336,-0.457855,0.958344,9.983398
2019-01-28 21:45:40:4540,0.114365,-0.017365,-0.069336,0.153519,0.754959,8.73674
2019-01-28 21:45:40:4540,0.114365,-0.017365,-0.069336,0.388,0.34938,8.3862
2019-01-28 21:45:40:4540,0.114365,-0.017365,-0.069336,0.520813,-0.257202,9.288284
2019-01-28 21:45:40:4540,0.114365,-0.017365,-0.069336,0.109238,-0.525208,9.976227
2019-01-28 21:45:40:4540,0.114365,-0.017365,-0.069336,-0.515289,0.256058,10.741928
2019-01-28 21:45:40:4540,0.114365,-0.017365,-0.069336,-1.429352,1.160553,9.904434
2019-01-28 21:45:40:4540,0.114365,-0.017365,-0.069336,-1.409012,1.221558,9.14592
2019-01-28 21:45:40:4540,0.114365,-0.017365,-0.069336,-0.660049,0.135223,9.439041
2019-01-28 21:45:40:4540,0.084564,0.058563,-0.073547,-0.660049,0.135223,9.439041
2019-01-28 21:45:40:4540,0.084564,0.058563,-0.073547,0.127182,-0.874557,10.922577
2019-01-28 21:45:40:4540,0.084564,0.058563,-0.073547,0.861786,-0.64006,11.383194
2019-01-28 21:45:40:4540,0.084564,0.058563,-0.073547,0.32579,0.22496,10.044418
2019-01-28 21:45:40:4540,0.084564,0.058563,-0.073547,-0.459061,0.618576,8.486694
2019-01-28 21:45:40:4540,0.084564,0.058563,-0.073547,-0.419571,0.378098,7.403946
2019-01-28 21:45:40:4540,0.084564,0.058563,-0.073547,-0.337021,0.160339,7.905228
2019-01-28 21:45:40:4540,0.084564,0.058563,-0.073547,-0.10611,0.218964,9.3517
2019-01-28 21:45:40:4540,0.084564,0.058563,-0.073547,0.434662,-0.002365,9.897263
2019-01-28 21:45:40:4540,0.084564,0.058563,-0.073547,0.109253,-0.056213,9.581406
2019-01-28 21:45:40:4540,-0.032715,0.038345,-0.126694,0.109253,-0.056213,9.581406
2019-01-28 21:45:40:4540,-0.032715,0.038345,-0.126694,-0.500931,0.1436,9.342117
2019-01-28 21:45:40:4540,-0.032715,0.038345,-0.126694,-0.338226,-0.209351,9.386398
2019-01-28 21:45:40:4540,-0.032715,0.038345,-0.126694,0.039856,-1.054016,10.369843
2019-01-28 21:45:40:4540,-0.032715,0.038345,-0.126694,-0.825165,-1.063599,11.841431
2019-01-28 21:45:40:4540,-0.032715,0.038345,-0.126694,-1.459259,-0.185425,11.786392
2019-01-28 21:45:40:4540,-0.032715,0.038345,-0.126694,-1.413788,0.062241,10.428467
2019-01-28 21:45:40:4540,-0.032715,0.038345,-0.126694,-1.298935,-0.281143,10.761063
2019-01-28 21:45:40:4540,-0.032715,0.038345,-0.126694,-1.196045,-0.340958,11.354492
2019-01-28 21:45:40:4540,-0.032715,0.038345,-0.126694,-1.011795,0.090958,10.238235
2019-01-28 21:45:40:4540,-0.032715,0.038345,-0.126694,-0.351379,0.084976,9.417496
2019-01-28 21:45:40:4540,0.026642,-0.08876,0.125275,-0.351379,0.084976,9.417496
2019-01-28 21:45:40:4540,0.026642,-0.08876,0.125275,-0.810806,0.003616,9.788391
2019-01-28 21:45:40:4540,0.026642,-0.08876,0.125275,-1.375504,0.600616,10.311218
2019-01-28 21:45:40:4540,0.026642,-0.08876,0.125275,-0.514084,0.752563,9.53714
2019-01-28 21:45:40:4540,0.026642,-0.08876,0.125275,0.362885,-0.305069,8.863556
2019-01-28 21:45:40:4540,0.026642,-0.08876,0.125275,0.98262,-1.061203,9.482101
2019-01-28 21:45:40:4540,0.026642,-0.08876,0.125275,0.555511,-0.745346,9.686691
2019-01-28 21:45:40:4540,0.026642,-0.08876,0.125275,-0.06424,0.075394,8.498657
2019-01-28 21:45:40:4540,0.026642,-0.08876,0.125275,-0.289169,0.576706,7.992569
2019-01-28 21:45:40:4540,0.026642,-0.08876,0.125275,-0.131241,0.067032,8.871933
2019-01-28 21:45:41:4541,0.251266,-0.186691,0.168091,-0.131241,0.067032,8.871933
2019-01-28 21:45:41:4541,0.251266,-0.186691,0.168091,0.372452,-0.154312,9.70105
2019-01-28 21:45:41:4541,0.251266,-0.186691,0.168091,-0.243698,0.443893,11.052994
2019-01-28 21:45:41:4541,0.251266,-0.186691,0.168091,-1.913895,1.320862,12.124985
2019-01-28 21:45:41:4541,0.251266,-0.186691,0.168091,-1.479599,1.609207,11.331757
2019-01-28 21:45:41:4541,0.251266,-0.186691,0.168091,-0.331039,2.045898,10.216705
2019-01-28 21:45:41:4541,0.251266,-0.186691,0.168091,-0.362152,2.892944,10.588791
2019-01-28 21:45:41:4541,0.251266,-0.186691,0.168091,-0.509308,2.42157,10.95369
2019-01-28 21:45:41:4541,0.251266,-0.186691,0.168091,1.357101,0.446289,10.282501
2019-01-28 21:45:41:4541,0.251266,-0.186691,0.168091,1.878738,-0.952316,9.59697
2019-01-28 21:45:41:4541,0.251266,-0.186691,0.168091,2.298676,-1.043259,8.548904
2019-01-28 21:45:41:4541,0.153397,0.040726,0.062057,2.298676,-1.043259,8.548904
2019-01-28 21:45:41:4541,0.153397,0.040726,0.062057,1.093887,0.278793,6.227859
2019-01-28 21:45:41:4541,0.153397,0.040726,0.062057,-1.535828,2.249283,5.238434
2019-01-28 21:45:41:4541,0.153397,0.040726,0.062057,-2.762146,2.794846,6.995972
2019-01-28 21:45:41:4541,0.153397,0.040726,0.062057,-1.333633,2.059052,11.117599
2019-01-28 21:45:41:4541,0.153397,0.040726,0.062057,0.362885,1.645096,14.44841
2019-01-28 21:45:41:4541,0.153397,0.040726,0.062057,-0.039124,1.58049,13.957886
2019-01-28 21:45:41:4541,0.153397,0.040726,0.062057,0.106857,1.347183,11.399948
2019-01-28 21:45:41:4541,0.153397,0.040726,0.062057,0.277939,1.49913,8.782211
2019-01-28 21:45:41:4541,0.153397,0.040726,0.062057,0.413132,1.513489,7.461365
2019-01-28 21:45:41:4541,-0.088242,0.005539,0.108536,0.413132,1.513489,7.461365
2019-01-28 21:45:41:4541,-0.088242,0.005539,0.108536,0.77684,1.341202,8.03685
2019-01-28 21:45:41:4541,-0.088242,0.005539,0.108536,0.620117,1.6427,8.314407
2019-01-28 21:45:41:4541,-0.088242,0.005539,0.108536,-0.341812,1.66423,8.566849
2019-01-28 21:45:41:4541,-0.088242,0.005539,0.108536,-0.383682,1.544601,8.241425
2019-01-28 21:45:41:4541,-0.088242,0.005539,0.108536,0.09848,1.659454,8.67453
2019-01-28 21:45:41:4541,-0.088242,0.005539,0.108536,0.661987,1.66304,9.623276
2019-01-28 21:45:41:4541,-0.088242,0.005539,0.108536,1.549728,1.527847,8.923386
2019-01-28 21:45:41:4541,-0.088242,0.005539,0.108536,1.256607,1.488358,8.98439
2019-01-28 21:45:41:4541,-0.088242,0.005539,0.108536,0.173859,1.841309,9.259567
2019-01-28 21:45:41:4541,-0.088242,0.005539,0.108536,-0.668427,2.286362,9.586197
2019-01-28 21:45:41:4541,-0.088242,0.005539,0.108536,-0.749786,1.914291,10.345917
2019-01-28 21:45:41:4541,-0.088242,0.005539,0.108536,0.55072,1.341202,10.788589
2019-01-28 21:45:41:4541,-0.088242,0.005539,0.108536,0.626099,0.75975,10.48111
2019-01-28 21:45:41:4541,-0.088242,0.005539,0.108536,0.299484,0.690353,10.485901
2019-01-28 21:45:41:4541,-0.088242,0.005539,0.108536,-0.164734,1.02655,9.827866
2019-01-28 21:45:41:4541,-0.088242,0.005539,0.108536,0.041046,1.496735,8.89946
2019-01-28 21:45:41:4541,-0.088242,0.005539,0.108536,-0.012802,1.76593,7.826263
2019-01-28 21:45:41:4541,-0.088242,0.005539,0.108536,-0.241318,1.033722,9.156677
2019-01-28 21:45:41:4541,-0.088242,0.005539,0.108536,0.380829,0.179489,11.778015
2019-01-28 21:45:41:4541,-0.126007,0.111954,-0.032623,0.380829,0.179489,11.778015
2019-01-28 21:45:41:4541,-0.126007,0.111954,-0.032623,0.24086,0.598236,12.233856
2019-01-28 21:45:41:4541,-0.126007,0.111954,-0.032623,-0.829941,1.542206,10.654587
2019-01-28 21:45:41:4541,-0.126007,0.111954,-0.032623,-1.565735,1.885574,9.399551
2019-01-28 21:45:41:4541,-0.126007,0.111954,-0.032623,-1.184082,1.804214,9.35289
2019-01-28 21:45:41:4541,-0.126007,0.111954,-0.032623,-0.256866,1.365128,9.483307
2019-01-28 21:45:41:4541,-0.126007,0.111954,-0.032623,0.46698,0.526443,9.68071
2019-01-28 21:45:41:4541,-0.126007,0.111954,-0.032623,1.334366,0.209396,9.924774
2019-01-28 21:45:41:4541,-0.126007,0.111954,-0.032623,0.395187,0.930832,9.629257
2019-01-28 21:45:41:4541,-0.126007,0.111954,-0.032623,-0.441101,1.816177,8.641022
2019-01-28 21:45:41:4541,-0.126007,0.111954,-0.032623,-0.704315,1.598434,7.73056
2019-01-28 21:45:41:4541,0.060913,0.223007,0.000305,-0.704315,1.598434,7.73056
2019-01-28 21:45:41:4541,0.060913,0.223007,0.000305,-0.328644,0.63652,8.821686
2019-01-28 21:45:41:4541,0.060913,0.223007,0.000305,0.093689,0.576691,11.195374
2019-01-28 21:45:41:4541,0.060913,0.223007,0.000305,-0.555969,1.529037,11.106827
2019-01-28 21:45:41:4541,0.060913,0.223007,0.000305,-0.890961,1.895142,9.305038
2019-01-28 21:45:41:4541,0.060913,0.223007,0.000305,-0.498535,1.106705,9.14711
2019-01-28 21:45:41:4541,0.060913,0.223007,0.000305,0.109253,0.526443,10.293274
2019-01-28 21:45:41:4541,0.060913,0.223007,0.000305,0.127197,0.635315,10.189178
2019-01-28 21:45:41:4541,0.060913,0.223007,0.000305,0.197784,0.917679,8.956879
2019-01-28 21:45:41:4541,0.060913,0.223007,0.000305,-0.425552,1.240707,7.472137
2019-01-28 21:45:42:4542,0.031418,0.104614,-0.076111,-0.425552,1.240707,7.472137
2019-01-28 21:45:42:4542,0.031418,0.104614,-0.076111,-1.218781,1.31369,6.985184
2019-01-28 21:45:42:4542,0.031418,0.104614,-0.076111,-1.119476,0.771713,7.66954
2019-01-28 21:45:42:4542,0.031418,0.104614,-0.076111,-0.516479,0.283569,9.483292
2019-01-28 21:45:42:4542,0.031418,0.104614,-0.076111,-0.235336,0.429535,10.634247
2019-01-28 21:45:42:4542,0.031418,0.104614,-0.076111,-1.132645,1.016983,9.880508
2019-01-28 21:45:42:4542,0.031418,0.104614,-0.076111,-1.142212,1.08876,9.070541
2019-01-28 21:45:42:4542,0.031418,0.104614,-0.076111,-0.454269,0.55397,9.854187
2019-01-28 21:45:42:4542,0.031418,0.104614,-0.076111,0.025497,0.077789,11.800751
2019-01-28 21:45:42:4542,0.031418,0.104614,-0.076111,0.073349,0.26683,11.833054
2019-01-28 21:45:42:4542,0.031418,0.104614,-0.076111,-0.316681,0.792053,10.223877
2019-01-28 21:45:42:4542,-0.107544,-0.068298,-0.00708,-0.316681,0.792053,10.223877
2019-01-28 21:45:42:4542,-0.107544,-0.068298,-0.00708,-0.609802,0.580292,9.344513
2019-01-28 21:45:42:4542,-0.107544,-0.068298,-0.00708,-0.268829,-0.04425,9.534744
2019-01-28 21:45:42:4542,-0.107544,-0.068298,-0.00708,-0.146805,-0.075348,9.508423
2019-01-28 21:45:42:4542,-0.107544,-0.068298,-0.00708,-0.147995,0.412781,9.567047
2019-01-28 21:45:42:4542,-0.107544,-0.068298,-0.00708,-0.565536,0.788452,9.404343
2019-01-28 21:45:42:4542,-0.107544,-0.068298,-0.00708,-0.602631,0.826736,9.25119
2019-01-28 21:45:42:4542,-0.107544,-0.068298,-0.00708,-0.442307,0.69754,10.239426
2019-01-28 21:45:42:4542,-0.107544,-0.068298,-0.00708,-0.046295,0.099335,11.401154
2019-01-28 21:45:42:4542,-0.107544,-0.068298,-0.00708,0.336563,-0.482132,10.694077
2019-01-28 21:45:42:4542,0.058792,0.01416,-0.115143,0.336563,-0.482132,10.694077
2019-01-28 21:45:42:4542,0.058792,0.01416,-0.115143,-0.281998,-0.007156,9.72139
2019-01-28 21:45:42:4542,0.058792,0.01416,-0.115143,-0.510498,1.203613,8.002151
2019-01-28 21:45:42:4542,0.058792,0.01416,-0.115143,-1.234329,2.438309,6.129761
2019-01-28 21:45:42:4542,0.058792,0.01416,-0.115143,-0.546402,-0.288315,5.633255
2019-01-28 21:45:42:4542,0.058792,0.01416,-0.115143,0.257599,-3.507858,10.548111
2019-01-28 21:45:42:4542,0.058792,0.01416,-0.115143,-0.145599,-3.856018,14.301254
2019-01-28 21:45:42:4542,0.058792,0.01416,-0.115143,-0.400436,-2.01474,12.16925
2019-01-28 21:45:42:4542,0.058792,0.01416,-0.115143,-1.962952,1.209595,8.423279
2019-01-28 21:45:42:4542,0.058792,0.01416,-0.115143,-6.337021,7.835327,9.068146
2019-01-28 21:45:42:4542,0.058792,0.01416,-0.115143,-6.124069,8.324661,12.82608
2019-01-28 21:45:42:4542,-0.699722,-0.221024,0.045502,-6.124069,8.324661,12.82608
2019-01-28 21:45:42:4542,-0.699722,-0.221024,0.045502,4.498871,-5.874359,18.90744
2019-01-28 21:45:42:4542,-0.699722,-0.221024,0.045502,8.796387,-10.222122,29.514816
2019-01-28 21:45:42:4542,-0.699722,-0.221024,0.045502,5.408157,-5.241455,22.101852
2019-01-28 21:45:42:4542,-0.699722,-0.221024,0.045502,-0.954361,2.947983,5.018295
2019-01-28 21:45:42:4542,-0.699722,-0.221024,0.045502,-7.741608,9.603622,-6.113129
2019-01-28 21:45:42:4542,-0.699722,-0.221024,0.045502,-6.810806,6.557556,-0.458878
2019-01-28 21:45:42:4542,-0.699722,-0.221024,0.045502,-0.70433,0.958344,10.910629
2019-01-28 21:45:42:4542,-0.699722,-0.221024,0.045502,1.382217,-1.528992,16.000153
2019-01-28 21:45:42:4542,-0.699722,-0.221024,0.045502,4.580231,-1.922623,9.289474
2019-01-28 21:45:42:4542,0.930847,0.124176,-0.207458,4.580231,-1.922623,9.289474
2019-01-28 21:45:42:4542,0.930847,0.124176,-0.207458,2.41832,-0.283539,-1.856293
2019-01-28 21:45:42:4542,0.930847,0.124176,-0.207458,-0.798843,1.011002,-5.018402
2019-01-28 21:45:42:4542,0.930847,0.124176,-0.207458,-1.218781,0.299133,-0.651505
2019-01-28 21:45:42:4542,0.930847,0.124176,-0.207458,0.402359,-1.966888,2.526169
2019-01-28 21:45:42:4542,0.930847,0.124176,-0.207458,1.18483,-3.456406,2.611115
2019-01-28 21:45:42:4542,0.930847,0.124176,-0.207458,0.390396,-3.454025,-1.255692
2019-01-28 21:45:42:4542,0.930847,0.124176,-0.207458,0.198975,-4.403976,-6.2854
2019-01-28 21:45:42:4542,0.930847,0.124176,-0.207458,0.743347,-4.114441,-2.9534
2019-01-28 21:45:42:4542,0.930847,0.124176,-0.207458,-4.205017,4.238907,7.092865
2019-01-28 21:45:42:4542,0.930847,0.124176,-0.207458,-10.943207,6.04071,14.340729
2019-01-28 21:45:43:4543,-0.918167,-0.134338,-0.206467,-10.943207,6.04071,14.340729
2019-01-28 21:45:43:4543,-0.918167,-0.134338,-0.206467,-5.902725,0.932037,28.076721
2019-01-28 21:45:43:4543,-0.918167,-0.134338,-0.206467,3.361084,-6.878143,35.807938
2019-01-28 21:45:43:4543,-0.918167,-0.134338,-0.206467,9.320419,-1.58403,30.732773
2019-01-28 21:45:43:4543,-0.918167,-0.134338,-0.206467,-4.75058,4.467422,23.974228
2019-01-28 21:45:43:4543,-0.918167,-0.134338,-0.206467,-8.397247,3.915878,19.583405
2019-01-28 21:45:43:4543,-0.918167,-0.134338,-0.206467,0.269562,1.452469,13.447021
2019-01-28 21:45:43:4543,-0.918167,-0.134338,-0.206467,2.504456,0.017975,10.149704
2019-01-28 21:45:43:4543,-0.918167,-0.134338,-0.206467,1.591599,-1.333984,6.261368
2019-01-28 21:45:43:4543,-0.918167,-0.134338,-0.206467,2.560699,-1.116226,4.313599
2019-01-28 21:45:43:4543,0.23056,0.085495,0.008179,2.560699,-1.116226,4.313599
2019-01-28 21:45:43:4543,0.23056,0.085495,0.008179,0.812729,-0.266785,9.466553
2019-01-28 21:45:43:4543,0.23056,0.085495,0.008179,-0.928055,-0.028702,12.195572
2019-01-28 21:45:43:4543,0.23056,0.085495,0.008179,0.002762,-0.576645,11.629654
2019-01-28 21:45:43:4543,0.23056,0.085495,0.008179,0.155899,-0.550323,9.389984
2019-01-28 21:45:43:4543,0.23056,0.085495,0.008179,-2.221375,-0.366089,6.372635
2019-01-28 21:45:43:4543,0.23056,0.085495,0.008179,-3.759964,-0.504868,5.209717
2019-01-28 21:45:43:4543,0.23056,0.085495,0.008179,-2.824371,-0.649628,4.636642
2019-01-28 21:45:43:4543,0.23056,0.085495,0.008179,-0.72226,-0.799179,4.17244
2019-01-28 21:45:43:4543,0.23056,0.085495,0.008179,0.618912,-0.90686,7.32019
2019-01-28 21:45:43:4543,0.23056,0.085495,0.008179,0.83905,-0.677155,11.32338
2019-01-28 21:45:43:4543,0.23056,0.085495,0.008179,-0.125259,-0.003571,11.839035
2019-01-28 21:45:43:4543,0.23056,0.085495,0.008179,-0.356155,0.117264,11.684692
2019-01-28 21:45:43:4543,0.23056,0.085495,0.008179,-0.595444,0.180679,9.541931
2019-01-28 21:45:43:4543,0.23056,0.085495,0.008179,-0.834732,0.244095,7.399155
2019-01-28 21:45:43:4543,0.23056,0.085495,0.008179,-0.246094,-0.093292,9.626862
2019-01-28 21:45:43:4543,0.23056,0.085495,0.008179,-0.356155,0.117264,11.684692
2019-01-28 21:45:43:4543,0.23056,0.085495,0.008179,-0.361542,-0.352921,9.802139
2019-01-28 21:45:43:4543,0.23056,0.085495,0.008179,-0.570328,-0.358902,8.765457
2019-01-28 21:45:43:4543,0.23056,0.085495,0.008179,-0.473419,-0.691513,8.979614
2019-01-28 21:45:43:4543,0.23056,0.085495,0.008179,0.352112,-0.890106,9.738129
2019-01-28 21:45:43:4543,0.23056,0.085495,0.008179,0.645233,-0.739365,10.075531
2019-01-28 21:45:43:4543,0.23056,0.085495,0.008179,-0.344193,-0.784836,10.336334
2019-01-28 21:45:43:4543,0.23056,0.085495,0.008179,-1.636322,-0.29071,10.252594
2019-01-28 21:45:43:4543,0.23056,0.085495,0.008179,-2.73703,0.506104,10.076721
2019-01-28 21:45:43:4543,-0.105255,-0.294052,0.132584,-2.73703,0.506104,10.076721
2019-01-28 21:45:43:4543,-0.105255,-0.294052,0.132584,-1.316879,0.648483,11.445419
2019-01-28 21:45:43:4543,-0.105255,-0.294052,0.132584,-0.034332,0.084976,11.015915
2019-01-28 21:45:43:4543,-0.105255,-0.294052,0.132584,0.287506,-0.171066,10.909424
2019-01-28 21:45:43:4543,-0.105255,-0.294052,0.132584,0.493301,0.289566,11.715805
2019-01-28 21:45:43:4543,-0.105255,-0.294052,0.132584,0.209747,0.622162,11.902435
2019-01-28 21:45:43:4543,-0.105255,-0.294052,0.132584,-0.058258,0.155563,11.298248
2019-01-28 21:45:43:4543,-0.105255,-0.294052,0.132584,0.42749,0.300323,11.124786
2019-01-28 21:45:43:4543,-0.105255,-0.294052,0.132584,-0.390869,0.664032,9.919998
2019-01-28 21:45:43:4543,-0.105255,-0.294052,0.132584,-0.240112,-0.529999,9.007126
2019-01-28 21:45:43:4543,-0.057465,-0.133972,-0.047714,-0.240112,-0.529999,9.007126
2019-01-28 21:45:43:4543,-0.057465,-0.133972,-0.047714,0.830673,-1.724014,9.218903
2019-01-28 21:45:43:4543,-0.057465,-0.133972,-0.047714,1.019714,-0.959503,11.152298
2019-01-28 21:45:43:4543,-0.057465,-0.133972,-0.047714,-0.013992,0.585068,10.294464
2019-01-28 21:45:43:4543,-0.057465,-0.133972,-0.047714,-0.801224,0.581482,8.093063
2019-01-28 21:45:43:4543,-0.057465,-0.133972,-0.047714,-0.968735,0.039505,7.656387
2019-01-28 21:45:43:4543,-0.057465,-0.133972,-0.047714,-0.91011,0.198624,8.498657
2019-01-28 21:45:43:4543,-0.057465,-0.133972,-0.047714,-0.675613,0.644897,9.117203
2019-01-28 21:45:43:4543,-0.057465,-0.133972,-0.047714,-0.144394,0.625748,8.356277
2019-01-28 21:45:43:4543,-0.057465,-0.133972,-0.047714,-0.356171,0.053864,6.304428
2019-01-28 21:45:43:4543,-0.057465,-0.133972,-0.047714,-1.346802,-0.137573,7.212509
2019-01-28 21:45:44:4544,0.079605,0.222763,-0.033112,-1.346802,-0.137573,7.212509
2019-01-28 21:45:44:4544,0.079605,0.222763,-0.033112,-0.479401,-0.017929,9.860168
2019-01-28 21:45:44:4544,0.079605,0.222763,-0.033112,0.26358,-0.138763,10.2155
2019-01-28 21:45:44:4544,0.079605,0.222763,-0.033112,0.977844,-0.581436,10.311218
2019-01-28 21:45:44:4544,0.079605,0.222763,-0.033112,-0.133636,-0.500076,10.329163
2019-01-28 21:45:44:4544,0.079605,0.222763,-0.033112,-0.934036,0.058655,11.383209
2019-01-28 21:45:44:4544,0.079605,0.222763,-0.033112,-0.278397,0.052673,11.231262
2019-01-28 21:45:44:4544,0.079605,0.222763,-0.033112,-0.025955,-0.123215,10.48349
2019-01-28 21:45:44:4544,0.079605,0.222763,-0.033112,-0.567932,-0.218933,10.120987
2019-01-28 21:45:44:4544,0.079605,0.222763,-0.033112,-0.155167,0.046677,9.617294
2019-01-28 21:45:44:4544,0.009857,-0.073318,-0.123642,-0.155167,0.046677,9.617294
2019-01-28 21:45:44:4544,0.009857,-0.073318,-0.123642,-0.392059,0.473801,8.965256
2019-01-28 21:45:44:4544,0.009857,-0.073318,-0.123642,-0.850281,0.788452,8.465149
2019-01-28 21:45:44:4544,0.009857,-0.073318,-0.123642,-1.133835,0.723862,8.578812
2019-01-28 21:45:44:4544,0.009857,-0.073318,-0.123642,-1.058456,0.098129,9.346909
2019-01-28 21:45:44:4544,0.009857,-0.073318,-0.123642,-0.378906,-0.634079,10.335144
2019-01-28 21:45:44:4544,0.009857,-0.073318,-0.123642,0.332977,-0.912842,10.698853
2019-01-28 21:45:44:4544,0.009857,-0.073318,-0.123642,0.259995,-0.693893,10.844818
2019-01-28 21:45:44:4544,0.009857,-0.073318,-0.123642,-0.679199,-0.239273,9.992981
2019-01-28 21:45:44:4544,0.009857,-0.073318,-0.123642,-0.755768,0.251266,9.267944
2019-01-28 21:45:44:4544,0.009857,-0.073318,-0.123642,-0.746201,0.652069,8.758286
2019-01-28 21:45:44:4544,-0.010056,-0.103729,0.078552,-0.746201,0.652069,8.758286
2019-01-28 21:45:44:4544,-0.010056,-0.103729,0.078552,-0.759354,0.531235,9.345718
2019-01-28 21:45:44:4544,-0.010056,-0.103729,0.078552,-0.230545,0.436722,10.552902
2019-01-28 21:45:44:4544,-0.010056,-0.103729,0.078552,0.330582,0.368515,10.836441
2019-01-28 21:45:44:4544,-0.010056,-0.103729,0.078552,0.239655,0.114883,10.806534
2019-01-28 21:45:44:4544,-0.010056,-0.103729,0.078552,0.060196,-0.33139,10.570831
2019-01-28 21:45:44:4544,-0.010056,-0.103729,0.078552,0.538757,-0.551529,10.533752
2019-01-28 21:45:44:4544,-0.010056,-0.103729,0.078552,0.204956,-0.172272,9.835037
2019-01-28 21:45:44:4544,-0.010056,-0.103729,0.078552,-0.390854,0.521652,8.857574
2019-01-28 21:45:44:4544,-0.010056,-0.103729,0.078552,-0.685181,0.754959,7.712616
2019-01-28 21:45:44:4544,0.019989,-0.045761,0.06572,-0.685181,0.754959,7.712616
2019-01-28 21:45:44:4544,0.019989,-0.045761,0.06572,-0.535629,0.009598,8.396957
2019-01-28 21:45:44:4544,0.019989,-0.045761,0.06572,-0.153976,-0.332581,10.755081
2019-01-28 21:45:44:4544,0.019989,-0.045761,0.06572,-0.187469,0.178299,12.224274
2019-01-28 21:45:44:4544,0.019989,-0.045761,0.06572,-0.364548,0.549179,11.458572
2019-01-28 21:45:44:4544,0.019989,-0.045761,0.06572,-0.316681,0.227341,10.682098
2019-01-28 21:45:44:4544,0.019989,-0.045761,0.06572,-0.425552,0.251266,10.700043
2019-01-28 21:45:44:4544,0.019989,-0.045761,0.06572,-0.849091,0.975098,9.555084
2019-01-28 21:45:44:4544,0.019989,-0.045761,0.06572,-0.993851,1.330429,8.073929
2019-01-28 21:45:44:4544,0.019989,-0.045761,0.06572,-0.523666,0.6772,7.969849
2019-01-28 21:45:44:4544,0.110031,0.062286,0.017776,-0.523666,0.6772,7.969849
2019-01-28 21:45:44:4544,0.110031,0.062286,0.017776,-0.180298,-0.04425,9.027466
2019-01-28 21:45:44:4544,0.110031,0.062286,0.017776,-0.389664,-0.206955,10.143723
2019-01-28 21:45:44:4544,0.110031,0.062286,0.017776,-0.137222,-0.129196,10.150909
2019-01-28 21:45:44:4544,0.110031,0.062286,0.017776,-0.12645,-0.089706,9.403137
2019-01-28 21:45:44:4544,0.110031,0.062286,0.017776,-0.335831,0.351761,9.287094
2019-01-28 21:45:44:4544,0.110031,0.062286,0.017776,-0.72226,1.051666,9.24881
2019-01-28 21:45:44:4544,0.110031,0.062286,0.017776,-0.633728,1.066025,8.779816
2019-01-28 21:45:44:4544,0.110031,0.062286,0.017776,-0.253281,0.293152,9.172226
2019-01-28 21:45:44:4544,0.110031,0.062286,0.017776,-0.205429,-0.162689,10.177216
2019-01-28 21:45:44:4544,0.110031,0.062286,0.017776,0.228882,-0.117233,10.320786
2019-01-28 21:45:45:4545,0.052979,0.084457,0.045074,0.228882,-0.117233,10.320786
2019-01-28 21:45:45:4545,0.052979,0.084457,0.045074,-0.076202,0.230927,9.629257
2019-01-28 21:45:45:4545,0.052979,0.084457,0.045074,-0.650482,0.681976,9.194962
2019-01-28 21:45:45:4545,0.052979,0.084457,0.045074,-1.332428,0.900925,8.874329
2019-01-28 21:45:45:4545,0.052979,0.084457,0.045074,-1.296539,0.612595,9.297852
2019-01-28 21:45:45:4545,0.052979,0.084457,0.045074,-0.463837,0.204605,10.339935
2019-01-28 21:45:45:4545,0.052979,0.084457,0.045074,-0.179092,0.172302,10.890274
2019-01-28 21:45:45:4545,0.052979,0.084457,0.045074,-0.289169,0.539612,10.722778
2019-01-28 21:45:45:4545,0.052979,0.084457,0.045074,-0.560745,0.75975,10.496658
2019-01-28 21:45:45:4545,0.052979,0.084457,0.045074,-1.286972,0.573105,10.33754
2019-01-28 21:45:45:4545,0.10202,0.035477,-0.037445,-1.286972,0.573105,10.33754
2019-01-28 21:45:45:4545,0.10202,0.035477,-0.037445,-0.494949,0.317078,10.411713
2019-01-28 21:45:45:4545,0.10202,0.035477,-0.037445,-0.169525,0.235718,10.196365
2019-01-28 21:45:45:4545,0.10202,0.035477,-0.037445,-0.115692,0.520462,9.711823
2019-01-28 21:45:45:4545,0.10202,0.035477,-0.037445,-0.466232,0.866226,8.686493
2019-01-28 21:45:45:4545,0.10202,0.035477,-0.037445,-0.467422,0.583878,8.236633
2019-01-28 21:45:45:4545,0.10202,0.035477,-0.037445,-0.433929,-0.004776,9.149506
2019-01-28 21:45:45:4545,0.10202,0.035477,-0.037445,-0.083389,-0.126801,9.72139
2019-01-28 21:45:45:4545,0.10202,0.035477,-0.037445,0.001572,0.167526,9.546707
2019-01-28 21:45:45:4545,0.10202,0.035477,-0.037445,-0.322662,0.649673,9.33136
2019-01-28 21:45:45:4545,0.10202,0.035477,-0.037445,-1.5466,0.995438,8.636246
2019-01-28 21:45:45:4545,-0.113235,-0.088699,-0.032074,-1.5466,0.995438,8.636246
2019-01-28 21:45:45:4545,-0.113235,-0.088699,-0.032074,-1.385086,0.671204,9.301453
2019-01-28 21:45:45:4545,-0.113235,-0.088699,-0.032074,-0.366928,-0.013138,10.648605
2019-01-28 21:45:45:4545,-0.113235,-0.088699,-0.032074,0.087708,-0.20816,11.130753
2019-01-28 21:45:45:4545,-0.113235,-0.088699,-0.032074,-0.122864,-0.069366,11.047012
2019-01-28 21:45:45:4545,-0.113235,-0.088699,-0.032074,-0.380096,-0.078949,10.908218
2019-01-28 21:45:45:4545,-0.113235,-0.088699,-0.032074,-0.171921,0.046677,10.459579
2019-01-28 21:45:45:4545,-0.113235,-0.088699,-0.032074,-0.281982,0.580276,10.042023
2019-01-28 21:45:45:4545,-0.113235,-0.088699,-0.032074,-0.624161,1.280197,9.544312
2019-01-28 21:45:45:4545,-0.113235,-0.088699,-0.032074,-1.083588,1.716873,8.691269
2019-01-28 21:45:45:4545,0.123291,-0.03244,-0.028839,-1.083588,1.716873,8.691269
2019-01-28 21:45:45:4545,0.123291,-0.03244,-0.028839,-0.930435,1.105515,8.88031
2019-01-28 21:45:45:4545,0.123291,-0.03244,-0.028839,0.257599,-0.321823,10.539734
2019-01-28 21:45:45:4545,0.123291,-0.03244,-0.028839,0.812729,-0.899689,12.037643
2019-01-28 21:45:45:4545,0.123291,-0.03244,-0.028839,0.092499,-0.052628,11.387985
2019-01-28 21:45:45:4545,0.123291,-0.03244,-0.028839,-0.700729,1.020569,9.673523
2019-01-28 21:45:45:4545,0.123291,-0.03244,-0.028839,-1.191254,1.586472,8.5513
2019-01-28 21:45:45:4545,0.123291,-0.03244,-0.028839,-0.870621,1.31488,7.990173
2019-01-28 21:45:45:4545,0.123291,-0.03244,-0.028839,-0.453079,0.691559,8.830063
2019-01-28 21:45:45:4545,0.123291,-0.03244,-0.028839,-0.066635,0.262039,10.032455
2019-01-28 21:45:45:4545,0.123291,-0.03244,-0.028839,0.315033,0.148376,9.902039
2019-01-28 21:45:45:4545,-0.08287,-0.073547,0.064438,0.315033,0.148376,9.902039
2019-01-28 21:45:45:4545,-0.08287,-0.073547,0.064438,-0.337021,0.553955,9.220093
2019-01-28 21:45:45:4545,-0.08287,-0.073547,0.064438,-1.028549,0.648483,8.673325
2019-01-28 21:45:45:4545,-0.08287,-0.073547,0.064438,-0.102524,0.037125,8.368256
2019-01-28 21:45:45:4545,-0.08287,-0.073547,0.064438,-0.100128,-0.190216,8.484299
2019-01-28 21:45:45:4545,-0.08287,-0.073547,0.064438,-0.555969,0.435516,8.540527
2019-01-28 21:45:45:4545,-0.08287,-0.073547,0.064438,-0.584686,1.117477,8.453186
2019-01-28 21:45:45:4545,-0.08287,-0.073547,0.064438,-1.510696,1.258652,8.930557
2019-01-28 21:45:45:4545,-0.08287,-0.073547,0.064438,-0.638519,0.737015,9.99057
2019-01-28 21:45:45:4545,-0.08287,-0.073547,0.064438,0.060196,-0.386429,11.513611
2019-01-28 21:45:45:4545,-0.062714,-0.031906,0.103653,0.060196,-0.386429,11.513611
2019-01-28 21:45:45:4545,-0.062714,-0.031906,0.103653,1.007751,-1.080338,13.942322
2019-01-28 21:45:45:4545,-0.062714,-0.031906,0.103653,1.190796,-0.428299,13.968643
2019-01-28 21:45:45:4545,-0.062714,-0.031906,0.103653,-0.70433,0.757355,10.836441
2019-01-28 21:45:45:4545,-0.062714,-0.031906,0.103653,-1.135025,1.568527,8.405334
2019-01-28 21:45:45:4545,-0.062714,-0.031906,0.103653,-0.615784,1.576904,7.273529
2019-01-28 21:45:45:4545,-0.062714,-0.031906,0.103653,0.55191,0.335022,6.750702
2019-01-28 21:45:45:4545,-0.062714,-0.031906,0.103653,1.315231,-0.88533,7.905228
2019-01-28 21:45:45:4545,-0.062714,-0.031906,0.103653,0.313828,-0.588608,9.180603
2019-01-28 21:45:45:4545,-0.062714,-0.031906,0.103653,-1.309708,0.427139,8.786987
2019-01-28 21:45:46:4546,0.015289,0.006882,0.065475,-1.309708,0.427139,8.786987
2019-01-28 21:45:46:4546,0.015289,0.006882,0.065475,-1.139816,0.783676,8.892273
2019-01-28 21:45:46:4546,0.015289,0.006882,0.065475,-0.833542,0.102921,9.914001
2019-01-28 21:45:46:4546,0.015289,0.006882,0.065475,-0.356171,-0.776443,12.148911
2019-01-28 21:45:46:4546,0.015289,0.006882,0.065475,-0.193451,-0.384033,14.061966
2019-01-28 21:45:46:4546,0.015289,0.006882,0.065475,-0.193451,0.159149,13.762863
2019-01-28 21:45:46:4546,0.015289,0.006882,0.065475,-0.922073,1.080383,12.241028
2019-01-28 21:45:46:4546,0.015289,0.006882,0.065475,-1.106323,1.714478,10.44043
2019-01-28 21:45:46:4546,0.015289,0.006882,0.065475,-0.240112,0.865036,8.964066
2019-01-28 21:45:46:4546,0.015289,0.006882,0.065475,1.072357,-0.051422,8.501053
2019-01-28 21:45:46:4546,0.015289,0.006882,0.065475,0.987411,0.008408,8.290482
2019-01-28 21:45:46:4546,0.024033,0.126373,-0.146667,0.987411,0.008408,8.290482
2019-01-28 21:45:46:4546,0.024033,0.126373,-0.146667,-0.034332,0.111298,6.981598
2019-01-28 21:45:46:4546,0.024033,0.126373,-0.146667,-0.307114,0.015579,6.217102
2019-01-28 21:45:46:4546,0.024033,0.126373,-0.146667,-0.265244,0.313492,6.610718
2019-01-28 21:45:46:4546,0.024033,0.126373,-0.146667,-0.540421,0.574295,7.113205
2019-01-28 21:45:46:4546,0.024033,0.126373,-0.146667,0.038651,-0.069366,7.64801
2019-01-28 21:45:46:4546,0.024033,0.126373,-0.146667,-0.168335,-0.066986,10.29567
2019-01-28 21:45:46:4546,0.024033,0.126373,-0.146667,-0.795258,0.6772,12.124985
2019-01-28 21:45:46:4546,0.024033,0.126373,-0.146667,-0.509308,0.284775,11.177414
2019-01-28 21:45:46:4546,0.024033,0.126373,-0.146667,-0.292755,-0.451035,11.030258
2019-01-28 21:45:46:4546,0.02684,-0.032806,0.035736,-0.292755,-0.451035,11.030258
2019-01-28 21:45:46:4546,0.02684,-0.032806,0.035736,-0.613403,0.309891,10.942932
2019-01-28 21:45:46:4546,0.02684,-0.032806,0.035736,-1.145798,1.215576,9.032257
2019-01-28 21:45:46:4546,0.02684,-0.032806,0.035736,-0.942413,0.918869,7.835846
2019-01-28 21:45:46:4546,0.02684,-0.032806,0.035736,-0.924454,1.064835,8.631454
2019-01-28 21:45:46:4546,0.02684,-0.032806,0.035736,-1.004623,1.493149,9.172226
2019-01-28 21:45:46:4546,0.02684,-0.032806,0.035736,-0.142014,0.314682,8.845612
2019-01-28 21:45:46:4546,0.02684,-0.032806,0.035736,0.437057,-0.53717,10.432053
2019-01-28 21:45:46:4546,0.02684,-0.032806,0.035736,-0.424362,0.230927,11.742126
2019-01-28 21:45:46:4546,0.02684,-0.032806,0.035736,-1.121872,1.344788,10.806534
2019-01-28 21:45:46:4546,0.02684,-0.032806,0.035736,-0.680389,1.406998,10.160477
2019-01-28 21:45:46:4546,0.02684,-0.032806,0.035736,-0.254471,0.033524,10.643829
2019-01-28 21:45:46:4546,0.02684,-0.032806,0.035736,0.748123,-1.462006,12.678925
2019-01-28 21:45:46:4546,0.02684,-0.032806,0.035736,0.645233,-0.86499,12.753098
2019-01-28 21:45:46:4546,0.02684,-0.032806,0.035736,-0.514099,1.038513,9.899658
2019-01-28 21:45:46:4546,0.02684,-0.032806,0.035736,-1.788269,2.274414,7.138336
2019-01-28 21:45:46:4546,0.02684,-0.032806,0.035736,-2.147202,2.212189,7.080902
2019-01-28 21:45:46:4546,0.02684,-0.032806,0.035736,-0.695953,0.784866,9.182999
2019-01-28 21:45:46:4546,0.02684,-0.032806,0.035736,0.999374,-0.623306,11.173828
2019-01-28 21:45:46:4546,0.02684,-0.032806,0.035736,1.069962,-0.547943,11.743317
2019-01-28 21:45:46:4546,0.080475,-0.09726,0.091507,1.069962,-0.547943,11.743317
2019-01-28 21:45:46:4546,0.080475,-0.09726,0.091507,-0.104919,0.879395,9.64003
2019-01-28 21:45:46:4546,0.080475,-0.09726,0.091507,-0.753372,1.657059,7.228058
2019-01-28 21:45:46:4546,0.080475,-0.09726,0.091507,-0.060654,0.722656,6.924179
2019-01-28 21:45:46:4546,0.080475,-0.09726,0.091507,0.85939,-0.055008,8.754684
2019-01-28 21:45:46:4546,0.080475,-0.09726,0.091507,1.33078,-0.161499,10.25737
2019-01-28 21:45:46:4546,0.080475,-0.09726,0.091507,0.840256,-0.074158,9.276321
2019-01-28 21:45:46:4546,0.080475,-0.09726,0.091507,-0.923264,0.319473,8.175629
2019-01-28 21:45:46:4546,0.080475,-0.09726,0.091507,-0.735428,0.63652,8.492676
2019-01-28 21:45:46:4546,0.080475,-0.09726,0.091507,-0.139618,0.388855,9.234451
2019-01-28 21:45:46:4546,0.080475,-0.09726,0.091507,-0.058258,-0.081329,10.530167
2019-01-28 21:45:47:4547,-0.117813,-0.063538,-0.036835,-0.058258,-0.081329,10.530167
2019-01-28 21:45:47:4547,-0.117813,-0.063538,-0.036835,-0.535629,0.217773,11.481308
2019-01-28 21:45:47:4547,-0.117813,-0.063538,-0.036835,-1.100342,0.940399,11.22049
2019-01-28 21:45:47:4547,-0.117813,-0.063538,-0.036835,-0.595444,0.607803,11.912018
2019-01-28 21:45:47:4547,-0.117813,-0.063538,-0.036835,0.537567,0.363739,12.775818
2019-01-28 21:45:47:4547,-0.117813,-0.063538,-0.036835,0.358093,0.658051,12.099854
2019-01-28 21:45:47:4547,-0.117813,-0.063538,-0.036835,-0.069031,0.745392,11.092484
