Time,Gx,Gy,Gz,Ax,Ay,Az
2019-01-28 22:37:08:378,0.005569,-0.026459,0.001526,0.000000,0.000000,0.000000
2019-01-28 22:37:08:378,0.005569,-0.026459,0.001526,-1.371918,-2.170273,8.654190
2019-01-28 22:37:08:378,0.005569,-0.026459,0.001526,-0.597839,-2.031494,10.146118
2019-01-28 22:37:08:378,0.005569,-0.026459,0.001526,0.167877,-2.000381,10.959671
2019-01-28 22:37:08:378,0.005569,-0.026459,0.001526,-0.113297,-2.411942,10.113815
2019-01-28 22:37:08:378,0.005569,-0.026459,0.001526,-0.522476,-1.538559,10.294464
2019-01-28 22:37:08:378,0.005569,-0.026459,0.001526,0.833069,0.111282,10.818497
2019-01-28 22:37:08:378,0.005569,-0.026459,0.001526,2.108444,1.152176,11.938339
2019-01-28 22:37:08:378,0.005569,-0.026459,0.001526,3.929382,7.483582,9.472534
2019-01-28 22:37:08:378,0.005569,-0.026459,0.001526,1.579636,13.075607,7.579803
2019-01-28 22:37:08:378,0.005569,-0.026459,0.001526,1.221909,8.334229,7.942322
2019-01-28 22:37:08:378,0.005569,-0.026459,0.001526,-0.214981,2.952774,8.907822
2019-01-28 22:37:08:378,0.005569,-0.026459,0.001526,-0.402832,-0.174652,9.070541
2019-01-28 22:37:08:378,0.005569,-0.026459,0.001526,0.391602,-1.891510,9.218887
2019-01-28 22:37:08:378,0.005569,-0.026459,0.001526,1.544937,-3.348740,10.148499
2019-01-28 22:37:08:378,0.005569,-0.026459,0.001526,2.723404,-4.332184,10.880707
2019-01-28 22:37:08:378,0.005569,-0.026459,0.001526,4.728592,-4.515244,11.592575
2019-01-28 22:37:08:378,0.005569,-0.026459,0.001526,6.672760,-4.158707,12.184799
2019-01-28 22:37:08:378,0.005569,-0.026459,0.001526,7.832077,-4.027100,13.080902
2019-01-28 22:37:08:378,0.005569,-0.026459,0.001526,4.113632,-1.950134,13.576233
2019-01-28 22:37:08:378,0.005569,-0.026459,0.001526,0.792389,-0.269180,12.122589
2019-01-28 22:37:08:378,0.005569,-0.026459,0.001526,0.682327,-0.533585,10.868744
2019-01-28 22:37:08:378,0.005569,-0.026459,0.001526,0.880936,-1.328003,10.059967
2019-01-28 22:37:08:378,0.005569,-0.026459,0.001526,0.317413,-1.266983,9.754883
2019-01-28 22:37:08:378,0.005569,-0.026459,0.001526,0.561493,-0.677155,10.113800
2019-01-28 22:37:08:378,0.005569,-0.026459,0.001526,1.470764,-0.282333,10.245422
2019-01-28 22:37:08:378,0.005569,-0.026459,0.001526,1.925400,-0.080139,9.801544
2019-01-28 22:37:08:378,0.005569,-0.026459,0.001526,1.475540,0.157944,8.702042
2019-01-28 22:37:08:378,0.005569,-0.026459,0.001526,0.372452,0.026352,6.584396
2019-01-28 22:37:08:378,0.005569,-0.026459,0.001526,-1.882782,0.544388,4.422485
2019-01-28 22:37:08:378,0.005569,-0.026459,0.001526,-2.494156,2.086563,5.074524
2019-01-28 22:37:08:378,0.005569,-0.026459,0.001526,0.306656,2.182281,8.333557
2019-01-28 22:37:08:378,0.005569,-0.026459,0.001526,2.502060,1.649887,10.922577
2019-01-28 22:37:08:378,0.005569,-0.026459,0.001526,1.921814,1.273010,10.182007
2019-01-28 22:37:08:378,0.005569,-0.026459,0.001526,0.909637,1.265823,9.192566
2019-01-28 22:37:08:378,0.005569,-0.026459,0.001526,0.036255,1.652267,9.059769
2019-01-28 22:37:08:378,0.005569,-0.026459,0.001526,0.130783,1.832932,9.177017
2019-01-28 22:37:08:378,0.005569,-0.026459,0.001526,0.568665,1.634323,9.675919
2019-01-28 22:37:08:378,0.005569,-0.026459,0.001526,1.258987,1.485962,9.826675
2019-01-28 22:37:08:378,0.005569,-0.026459,0.001526,1.793793,1.683380,10.215500
2019-01-28 22:37:08:378,0.005569,-0.026459,0.001526,1.870361,1.895142,10.225082
2019-01-28 22:37:08:378,0.005569,-0.026459,0.001526,1.589203,1.777893,9.338531
2019-01-28 22:37:08:378,0.005569,-0.026459,0.001526,1.175247,1.846085,8.629074
2019-01-28 22:37:08:378,0.005569,-0.026459,0.001526,0.644043,2.108109,8.408920
2019-01-28 22:37:08:378,0.005569,-0.026459,0.001526,0.990997,2.301926,8.339523
2019-01-28 22:37:08:378,0.005569,-0.026459,0.001526,1.656204,2.215790,9.392380
2019-01-28 22:37:08:378,0.005569,-0.026459,0.001526,1.797379,1.974106,9.800354
2019-01-28 22:37:08:378,0.005569,-0.026459,0.001526,1.256607,1.582870,9.466553
2019-01-28 22:37:09:379,0.005569,-0.026459,0.001526,0.647629,1.745590,9.362457
2019-01-28 22:37:09:379,0.005569,-0.026459,0.001526,0.624893,1.842499,9.867355
2019-01-28 22:37:09:379,0.005569,-0.026459,0.001526,0.673950,1.758743,10.542130
2019-01-28 22:37:09:379,0.005569,-0.026459,0.001526,0.555511,1.739609,10.552887
2019-01-28 22:37:09:379,0.005569,-0.026459,0.001526,0.580627,1.747986,10.327972
2019-01-28 22:37:09:379,0.005569,-0.026459,0.001526,0.447830,1.730042,9.977417
2019-01-28 22:37:09:379,0.005569,-0.026459,0.001526,0.315033,1.604416,9.637634
2019-01-28 22:37:09:379,0.005569,-0.026459,0.001526,0.520813,1.606812,9.480911
2019-01-28 22:37:09:379,0.005569,-0.026459,0.001526,0.592606,1.692947,9.291870
2019-01-28 22:37:09:379,0.005569,-0.026459,0.001526,0.535172,1.712082,9.131561
2019-01-28 22:37:09:379,0.005569,-0.026459,0.001526,0.695480,1.596039,9.161469
2019-01-28 22:37:09:379,0.005569,-0.026459,0.001526,0.835464,1.579285,9.291870
2019-01-28 22:37:09:379,0.005569,-0.026459,0.001526,0.816330,1.646286,9.395966
2019-01-28 22:37:09:379,0.005569,-0.026459,0.001526,0.757706,1.619965,9.626877
2019-01-28 22:37:09:379,0.005569,-0.026459,0.001526,0.904861,1.531433,9.780014
2019-01-28 22:37:09:379,0.005569,-0.026459,0.001526,0.789993,1.477585,9.781204
2019-01-28 22:37:09:379,0.005569,-0.026459,0.001526,0.563889,1.490753,9.654388
2019-01-28 22:37:09:379,0.005569,-0.026459,0.001526,0.731384,1.489563,9.641220
2019-01-28 22:37:09:379,0.005569,-0.026459,0.001526,0.867767,1.458450,9.647202
2019-01-28 22:37:09:379,0.005569,-0.026459,0.001526,0.872559,1.490753,9.756088
2019-01-28 22:37:09:379,0.005569,-0.026459,0.001526,0.714630,1.472809,9.942719
2019-01-28 22:37:09:379,0.005569,-0.026459,0.001526,0.757706,1.420166,10.115005
2019-01-28 22:37:09:379,0.005569,-0.026459,0.001526,0.591400,1.336411,9.852997
2019-01-28 22:37:09:379,0.005569,-0.026459,0.001526,0.368866,1.423752,9.606537
2019-01-28 22:37:09:379,0.005569,-0.026459,0.001526,0.488510,1.465637,9.378021
2019-01-28 22:37:09:379,0.005569,-0.026459,0.001526,0.835464,1.446487,9.411514
2019-01-28 22:37:09:379,0.005569,-0.026459,0.001526,1.046036,1.471619,9.768051
2019-01-28 22:37:09:379,0.005569,-0.026459,0.001526,0.803162,1.403412,9.869751
2019-01-28 22:37:09:379,0.005569,-0.026459,0.001526,0.600967,1.305313,9.757278
2019-01-28 22:37:09:379,0.005569,-0.026459,0.001526,0.718216,1.359146,9.809921
2019-01-28 22:37:09:379,0.005569,-0.026459,0.001526,0.694290,1.317276,9.616104
2019-01-28 22:37:09:379,0.005569,-0.026459,0.001526,0.615326,1.357956,9.324173
2019-01-28 22:37:09:379,0.005569,-0.026459,0.001526,0.645233,1.468033,9.351700
2019-01-28 22:37:09:379,0.005569,-0.026459,0.001526,0.794785,1.473999,9.662766
2019-01-28 22:37:09:379,0.005569,-0.026459,0.001526,0.963486,1.381882,9.873337
2019-01-28 22:37:09:379,0.005569,-0.026459,0.001526,1.108246,1.334030,9.908020
2019-01-28 22:37:09:379,0.005569,-0.026459,0.001526,0.757706,1.409393,9.742920
2019-01-28 22:37:09:379,0.005569,-0.026459,0.001526,0.526794,1.409393,9.683105
2019-01-28 22:37:09:379,0.005569,-0.026459,0.001526,0.786407,1.409393,9.722580
2019-01-28 22:37:09:379,0.005569,-0.026459,0.001526,0.825897,1.392654,9.797958
2019-01-28 22:37:09:379,0.005569,-0.026459,0.001526,0.691895,1.314880,9.750107
2019-01-28 22:37:09:379,0.005569,-0.026459,0.001526,0.578232,1.349579,9.636444
2019-01-28 22:37:09:379,0.005569,-0.026459,0.001526,0.572266,1.421371,9.512024
2019-01-28 22:37:09:379,0.005569,-0.026459,0.001526,0.550720,1.404617,9.422287
2019-01-28 22:37:09:379,0.005569,-0.026459,0.001526,0.416733,1.334015,9.349304
2019-01-28 22:37:09:379,0.005569,-0.026459,0.001526,0.445435,1.366333,9.147110
2019-01-28 22:37:09:379,0.005569,-0.026459,0.001526,0.525604,1.407013,9.147110
2019-01-28 22:37:09:379,0.005569,-0.026459,0.001526,0.656006,1.459641,9.240433
2019-01-28 22:37:09:379,0.005569,-0.026459,0.001526,0.571060,1.451279,9.416306
2019-01-28 22:37:09:379,0.005569,-0.026459,0.001526,0.216919,1.292160,9.657974
2019-01-28 22:37:09:379,0.005569,-0.026459,0.001526,0.081726,1.000229,9.717804
2019-01-28 22:37:09:379,0.005569,-0.026459,0.001526,-0.080994,0.918869,9.717804
2019-01-28 22:37:09:379,0.005569,-0.026459,0.001526,-0.146790,1.042099,9.887695
2019-01-28 22:37:09:379,0.005569,-0.026459,0.001526,-0.149185,0.934418,10.067154
2019-01-28 22:37:09:379,0.005569,-0.026459,0.001526,-0.033142,0.765732,10.058777
2019-01-28 22:37:09:379,0.005569,-0.026459,0.001526,0.056610,0.800430,10.014511
2019-01-28 22:37:09:379,0.005569,-0.026459,0.001526,-0.084579,0.952362,10.179611
2019-01-28 22:37:09:379,0.005569,-0.026459,0.001526,-0.157562,0.924850,10.314804
2019-01-28 22:37:09:379,0.005569,-0.026459,0.001526,-0.102524,0.855453,10.059967
2019-01-28 22:37:09:379,0.005569,-0.026459,0.001526,0.086517,0.963135,9.845810
2019-01-28 22:37:09:379,0.005569,-0.026459,0.001526,0.047028,1.106705,9.842224
2019-01-28 22:37:09:379,0.005569,-0.026459,0.001526,-0.126450,1.117477,9.661560
2019-01-28 22:37:09:379,0.005569,-0.026459,0.001526,-0.153976,1.068420,9.545517
2019-01-28 22:37:09:379,0.005569,-0.026459,0.001526,-0.034332,1.092346,9.513214
2019-01-28 22:37:09:379,0.005569,-0.026459,0.001526,0.024307,1.161743,9.570633
2019-01-28 22:37:09:379,0.005569,-0.026459,0.001526,0.027893,1.137817,9.618500
2019-01-28 22:37:09:379,0.005569,-0.026459,0.001526,0.044647,1.112686,9.640030
2019-01-28 22:37:09:379,0.005569,-0.026459,0.001526,-0.108505,1.168930,9.640030
2019-01-28 22:37:09:379,0.005569,-0.026459,0.001526,-0.176697,1.119873,9.477325
2019-01-28 22:37:09:379,0.005569,-0.026459,0.001526,-0.177902,1.141403,9.456985
2019-01-28 22:37:09:379,0.005569,-0.026459,0.001526,-0.095352,1.223953,9.628067
2019-01-28 22:37:09:379,0.005569,-0.026459,0.001526,-0.019974,1.208405,9.726166
2019-01-28 22:37:09:379,0.005569,-0.026459,0.001526,0.047028,1.176102,9.665161
2019-01-28 22:37:09:379,0.005569,-0.026459,0.001526,0.115234,1.290955,9.671143
2019-01-28 22:37:09:379,0.005569,-0.026459,0.001526,0.017120,1.282578,9.765656
2019-01-28 22:37:09:379,0.005569,-0.026459,0.001526,-0.112091,1.288559,9.847015
2019-01-28 22:37:09:379,0.005569,-0.026459,0.001526,-0.138412,1.249084,9.778809
2019-01-28 22:37:09:379,0.005569,-0.026459,0.001526,-0.090561,1.232330,9.654388
2019-01-28 22:37:09:379,0.005569,-0.026459,0.001526,0.067368,1.313690,9.607727
2019-01-28 22:37:09:379,0.005569,-0.026459,0.001526,0.026703,1.295746,9.695068
2019-01-28 22:37:09:379,0.005569,-0.026459,0.001526,-0.108505,1.207199,9.698654
2019-01-28 22:37:09:379,0.005569,-0.026459,0.001526,-0.131241,1.174896,9.704636
2019-01-28 22:37:09:379,0.005569,-0.026459,0.001526,-0.132431,1.192856,9.679520
2019-01-28 22:37:09:379,0.005569,-0.026459,0.001526,-0.034332,1.164139,9.649597
2019-01-28 22:37:09:379,0.005569,-0.026459,0.001526,0.001572,1.213181,9.580215
2019-01-28 22:37:09:379,0.005569,-0.026459,0.001526,0.024307,1.270615,9.594574
2019-01-28 22:37:09:379,0.005569,-0.026459,0.001526,0.171463,1.331635,9.672333
2019-01-28 22:37:09:379,0.005569,-0.026459,0.001526,0.196579,1.336411,9.681900
2019-01-28 22:37:09:379,0.005569,-0.026459,0.001526,0.198975,1.387863,9.686691
2019-01-28 22:37:09:379,0.005569,-0.026459,0.001526,0.256409,1.408203,9.612518
2019-01-28 22:37:09:379,0.005569,-0.026459,0.001526,0.273148,1.470413,9.516800
2019-01-28 22:37:09:379,0.005569,-0.026459,0.001526,0.248032,1.483582,9.635254
2019-01-28 22:37:09:379,0.005569,-0.026459,0.001526,0.240845,1.395050,9.710617
2019-01-28 22:37:09:379,0.005569,-0.026459,0.001526,0.239655,1.375900,9.723785
2019-01-28 22:37:09:379,0.005569,-0.026459,0.001526,0.318619,1.386658,9.763260
2019-01-28 22:37:09:379,0.005569,-0.026459,0.001526,0.279144,1.420166,9.756073
2019-01-28 22:37:09:379,0.005569,-0.026459,0.001526,0.256409,1.398621,9.629257
2019-01-28 22:37:09:379,0.005569,-0.026459,0.001526,0.237259,1.408203,9.437836
2019-01-28 22:37:09:379,0.005569,-0.026459,0.001526,0.202560,1.476395,9.394760
2019-01-28 22:37:09:379,0.005569,-0.026459,0.001526,0.243240,1.483582,9.462967
2019-01-28 22:37:09:379,0.005569,-0.026459,0.001526,0.298279,1.393845,9.601746
2019-01-28 22:37:09:379,0.005569,-0.026459,0.001526,0.326996,1.359146,9.622086
2019-01-28 22:37:09:379,0.005569,-0.026459,0.001526,0.303055,1.427338,9.666351
2019-01-28 22:37:09:379,0.005569,-0.026459,0.001526,0.250427,1.389069,9.520386
2019-01-28 22:37:09:379,0.005569,-0.026459,0.001526,0.295883,1.357956,9.489273
2019-01-28 22:37:09:379,0.005569,-0.026459,0.001526,0.251617,1.336426,9.602936
2019-01-28 22:37:09:379,0.005569,-0.026459,0.001526,0.224106,1.286179,9.684296
2019-01-28 22:37:09:379,0.005569,-0.026459,0.001526,0.194199,1.273010,9.784790
2019-01-28 22:37:09:379,0.005569,-0.026459,0.001526,0.183426,1.213181,9.833847
2019-01-28 22:37:09:379,0.005569,-0.026459,0.001526,0.191803,1.215576,9.803940
2019-01-28 22:37:09:379,0.005569,-0.026459,0.001526,0.301865,1.344788,9.931961
2019-01-28 22:37:09:379,0.005569,-0.026459,0.001526,0.146332,1.354370,10.008530
2019-01-28 22:37:09:379,0.005569,-0.026459,0.001526,0.033875,1.253876,9.989380
2019-01-28 22:37:09:379,0.005569,-0.026459,0.001526,0.110443,1.261047,9.757278
2019-01-28 22:37:09:379,0.005569,-0.026459,0.001526,0.194199,1.361542,9.516800
2019-01-28 22:37:09:379,0.005569,-0.026459,0.001526,0.256409,1.401031,9.410324
2019-01-28 22:37:09:379,0.005569,-0.026459,0.001526,0.382019,1.328049,9.599350
2019-01-28 22:37:09:379,0.005569,-0.026459,0.001526,0.258789,1.296936,9.754883
2019-01-28 22:37:09:379,0.005569,-0.026459,0.001526,0.216919,1.255066,9.677124
2019-01-28 22:37:09:379,0.005569,-0.026459,0.001526,-0.028351,1.240707,9.760864
2019-01-28 22:37:09:379,0.005569,-0.026459,0.001526,-0.110901,1.361542,9.759674
2019-01-28 22:37:09:379,0.005569,-0.026459,0.001526,0.048233,1.454865,9.660370
2019-01-28 22:37:09:379,0.005569,-0.026459,0.001526,-0.039124,1.355560,9.555084
2019-01-28 22:37:09:379,0.005569,-0.026459,0.001526,-0.204224,1.356766,9.533554
2019-01-28 22:37:09:379,0.005569,-0.026459,0.001526,-0.463837,1.251465,9.638840
2019-01-28 22:37:09:379,0.005569,-0.026459,0.001526,-0.521271,1.095932,9.490479
2019-01-28 22:37:09:379,0.005569,-0.026459,0.001526,-0.161148,1.026550,9.137543
2019-01-28 22:37:09:379,0.005569,-0.026459,0.001526,0.458603,1.220367,9.404343
2019-01-28 22:37:09:379,0.005569,-0.026459,0.001526,0.617722,1.287354,9.771637
2019-01-28 22:37:09:379,0.005569,-0.026459,0.001526,0.358109,1.197632,10.097061
2019-01-28 22:37:09:379,0.005569,-0.026459,0.001526,0.236069,1.118668,10.045624
2019-01-28 22:37:09:379,0.005569,-0.026459,0.001526,0.349716,1.142609,9.759674
2019-01-28 22:37:09:379,0.005569,-0.026459,0.001526,0.499268,1.240707,9.680710
2019-01-28 22:37:09:379,0.005569,-0.026459,0.001526,0.435867,1.173706,9.690277
2019-01-28 22:37:09:379,0.005569,-0.026459,0.001526,0.074554,1.080383,9.701050
2019-01-28 22:37:09:379,0.005569,-0.026459,0.001526,-0.022369,0.970306,9.687881
2019-01-28 22:37:09:379,0.005569,-0.026459,0.001526,0.161880,0.989456,9.728561
2019-01-28 22:37:09:379,0.005569,-0.026459,0.001526,0.122406,1.001419,9.747711
2019-01-28 22:37:09:379,0.005569,-0.026459,0.001526,-0.058258,0.914078,9.806335
2019-01-28 22:37:09:379,0.005569,-0.026459,0.001526,-0.075012,0.809998,9.787186
2019-01-28 22:37:09:379,0.005569,-0.026459,0.001526,-0.064240,0.909302,9.677124
2019-01-28 22:37:09:379,0.005569,-0.026459,0.001526,0.037460,1.015778,9.673523
2019-01-28 22:37:09:379,0.005569,-0.026459,0.001526,0.164276,1.034927,9.733353
2019-01-28 22:37:09:379,0.005569,-0.026459,0.001526,0.216919,1.085175,9.768051
2019-01-28 22:37:09:379,0.005569,-0.026459,0.001526,0.141556,1.117477,9.783600
2019-01-28 22:37:09:379,0.005569,-0.026459,0.001526,0.152313,1.070816,9.721390
2019-01-28 22:37:09:379,0.005569,-0.026459,0.001526,0.367676,1.082779,9.681900
2019-01-28 22:37:09:379,0.005569,-0.026459,0.001526,0.311432,1.136612,9.612518
2019-01-28 22:37:09:379,0.005569,-0.026459,0.001526,0.281525,1.137817,9.489288
2019-01-28 22:37:09:379,0.005569,-0.026459,0.001526,0.380829,1.146194,9.592178
2019-01-28 22:37:09:379,0.005569,-0.026459,0.001526,0.196594,1.072006,9.791977
2019-01-28 22:37:09:379,0.005569,-0.026459,0.001526,0.085327,0.920074,9.841034
2019-01-28 22:37:09:379,0.005569,-0.026459,0.001526,0.189407,0.975098,9.758469
2019-01-28 22:37:09:379,0.005569,-0.026459,0.001526,0.246841,1.075592,9.674728
2019-01-28 22:37:09:379,0.005569,-0.026459,0.001526,0.240845,1.115082,9.661575
2019-01-28 22:37:09:379,0.005569,-0.026459,0.001526,0.216919,1.063629,9.638840
2019-01-28 22:37:09:379,0.005569,-0.026459,0.001526,0.291107,1.069611,9.681900
2019-01-28 22:37:09:379,0.005569,-0.026459,0.001526,0.218124,1.043304,9.689087
2019-01-28 22:37:09:379,0.005569,-0.026459,0.001526,0.135559,1.021759,9.697464
2019-01-28 22:37:09:379,0.005569,-0.026459,0.001526,0.184616,1.007401,9.680710
2019-01-28 22:37:09:379,0.005569,-0.026459,0.001526,0.233673,1.014587,9.659180
2019-01-28 22:37:09:379,0.005569,-0.026459,0.001526,0.188202,0.997833,9.617294
2019-01-28 22:37:09:379,-0.001694,-0.009415,-0.012222,0.188202,0.997833,9.617294
2019-01-28 22:37:09:379,-0.001694,-0.009415,-0.012222,0.224106,1.042099,9.672333
2019-01-28 22:37:09:379,-0.001694,-0.009415,-0.012222,0.264786,1.025345,9.758484
2019-01-28 22:37:09:379,-0.001694,-0.009415,-0.012222,0.196579,1.042099,9.768051
2019-01-28 22:37:09:379,-0.001694,-0.009415,-0.012222,0.206161,1.043304,9.689087
2019-01-28 22:37:09:379,-0.001694,-0.009415,-0.012222,0.322205,1.073212,9.673538
2019-01-28 22:37:09:379,-0.001694,-0.009415,-0.012222,0.311447,1.085175,9.661575
2019-01-28 22:37:09:379,-0.001694,-0.009415,-0.012222,0.281525,1.088760,9.607727
2019-01-28 22:37:09:379,-0.001694,-0.009415,-0.012222,0.283920,1.072006,9.601746
2019-01-28 22:37:09:379,-0.001694,-0.009415,-0.012222,0.371262,1.048080,9.656784
2019-01-28 22:37:09:379,-0.001694,-0.009415,-0.012222,0.420319,1.024155,9.693863
2019-01-28 22:37:09:379,-0.020065,-0.018280,0.000854,0.420319,1.024155,9.693863
2019-01-28 22:37:09:379,-0.020065,-0.018280,0.000854,0.324600,1.036118,9.848206
2019-01-28 22:37:09:379,-0.020065,-0.018280,0.000854,0.226486,0.940399,9.887680
2019-01-28 22:37:09:379,-0.020065,-0.018280,0.000854,0.123596,0.948776,9.813507
2019-01-28 22:37:09:379,-0.020065,-0.018280,0.000854,0.026688,0.948792,9.667557
2019-01-28 22:37:09:379,-0.020065,-0.018280,0.000854,0.069763,0.981079,9.546707
2019-01-28 22:37:09:379,-0.020065,-0.018280,0.000854,0.206161,1.079193,9.605331
2019-01-28 22:37:09:379,-0.020065,-0.018280,0.000854,0.295883,1.072006,9.696259
2019-01-28 22:37:09:379,-0.020065,-0.018280,0.000854,0.340149,0.960739,9.644821
2019-01-28 22:37:09:379,-0.020065,-0.018280,0.000854,0.393982,0.976303,9.534744
2019-01-28 22:37:09:379,-0.048782,-0.086700,0.007141,0.393982,0.976303,9.534744
2019-01-28 22:37:09:379,-0.048782,-0.086700,0.007141,0.410736,1.018173,9.616104
2019-01-28 22:37:09:379,-0.048782,-0.086700,0.007141,0.404755,1.031326,9.825470
2019-01-28 22:37:09:379,-0.048782,-0.086700,0.007141,0.416718,0.896149,9.866150
2019-01-28 22:37:09:379,-0.048782,-0.086700,0.007141,0.609344,0.900925,9.935547
2019-01-28 22:37:09:379,-0.048782,-0.086700,0.007141,0.872559,1.025345,9.850601
2019-01-28 22:37:09:379,-0.048782,-0.086700,0.007141,1.117828,1.088760,9.760864
2019-01-28 22:37:09:379,-0.048782,-0.086700,0.007141,1.029282,1.113892,9.618500
2019-01-28 22:37:09:379,-0.048782,-0.086700,0.007141,0.859390,1.055267,9.492874
2019-01-28 22:37:09:379,-0.048782,-0.086700,0.007141,0.803162,1.135422,9.692673
2019-01-28 22:37:09:379,-0.048782,-0.086700,0.007141,0.799576,1.019363,9.583801
2019-01-28 22:37:09:379,-0.011353,-0.326874,-0.149719,0.799576,1.019363,9.583801
2019-01-28 22:37:09:379,-0.011353,-0.326874,-0.149719,0.623703,0.854263,9.427063
2019-01-28 22:37:09:379,-0.011353,-0.326874,-0.149719,0.513626,0.814789,9.447403
2019-01-28 22:37:09:379,-0.011353,-0.326874,-0.149719,1.014923,0.818375,9.752487
2019-01-28 22:37:09:379,-0.011353,-0.326874,-0.149719,1.751923,0.879395,10.050400
2019-01-28 22:37:09:379,-0.011353,-0.326874,-0.149719,1.677734,0.692749,10.004929
2019-01-28 22:37:09:379,-0.011353,-0.326874,-0.149719,1.211136,0.622162,9.640030
2019-01-28 22:37:09:379,-0.011353,-0.326874,-0.149719,1.090302,0.807602,9.339737
2019-01-28 22:37:09:379,-0.011353,-0.326874,-0.149719,0.914429,0.988266,9.500046
2019-01-28 22:37:09:379,-0.011353,-0.326874,-0.149719,0.920410,0.848282,10.028870
2019-01-28 22:37:09:379,-0.074936,0.227219,0.027969,0.920410,0.848282,10.028870
2019-01-28 22:37:09:379,-0.074936,0.227219,0.027969,0.687119,0.900925,10.494278
2019-01-28 22:37:09:379,-0.074936,0.227219,0.027969,0.638062,0.683182,10.482300
2019-01-28 22:37:09:379,-0.074936,0.227219,0.027969,0.671555,0.546783,9.902054
2019-01-28 22:37:09:379,-0.074936,0.227219,0.027969,0.486115,0.975098,9.471329
2019-01-28 22:37:09:379,-0.074936,0.227219,0.027969,0.639252,0.758560,9.034653
2019-01-28 22:37:09:379,-0.074936,0.227219,0.027969,0.480133,0.894943,9.194962
2019-01-28 22:37:09:379,-0.074936,0.227219,0.027969,0.386810,0.965530,9.509628
2019-01-28 22:37:09:379,-0.074936,0.227219,0.027969,0.468170,0.869812,9.817108
2019-01-28 22:37:09:379,-0.074936,0.227219,0.027969,0.160690,0.874603,9.541916
2019-01-28 22:37:09:379,-0.074936,0.227219,0.027969,-0.164749,1.095932,9.234451
2019-01-28 22:37:09:379,0.058044,0.080795,-0.058334,-0.164749,1.095932,9.234451
2019-01-28 22:37:09:379,0.058044,0.080795,-0.058334,0.082916,1.042099,9.156677
2019-01-28 22:37:09:379,0.058044,0.080795,-0.058334,0.537567,1.036118,9.366058
2019-01-28 22:37:09:379,0.058044,0.080795,-0.058334,0.410751,0.954758,9.659164
2019-01-28 22:37:09:379,0.058044,0.080795,-0.058334,-0.016388,0.842300,9.811111
2019-01-28 22:37:09:379,0.058044,0.080795,-0.058334,0.303070,0.753769,9.963058
2019-01-28 22:37:09:379,0.058044,0.080795,-0.058334,0.733765,0.789658,9.943924
2019-01-28 22:37:09:379,0.058044,0.080795,-0.058334,0.993393,0.745392,9.931961
2019-01-28 22:37:09:379,0.058044,0.080795,-0.058334,0.876144,0.652069,10.056381
2019-01-28 22:37:09:379,0.058044,0.080795,-0.058334,0.519623,0.486969,9.893677
2019-01-28 22:37:09:379,0.058044,0.080795,-0.058334,0.450226,0.436722,9.687897
2019-01-28 22:37:10:3710,-0.140045,-0.226578,-0.043793,0.450226,0.436722,9.687897
2019-01-28 22:37:10:3710,-0.140045,-0.226578,-0.043793,0.589005,0.558746,9.631653
2019-01-28 22:37:10:3710,-0.140045,-0.226578,-0.043793,0.812729,0.668823,9.577820
2019-01-28 22:37:10:3710,-0.140045,-0.226578,-0.043793,0.961090,0.661652,9.577820
2019-01-28 22:37:10:3710,-0.140045,-0.226578,-0.043793,1.180038,0.733429,9.914001
2019-01-28 22:37:10:3710,-0.140045,-0.226578,-0.043793,1.290100,0.717880,10.296860
2019-01-28 22:37:10:3710,-0.140045,-0.226578,-0.043793,1.177643,0.648483,10.161667
2019-01-28 22:37:10:3710,-0.140045,-0.226578,-0.043793,1.004166,0.753769,9.839828
2019-01-28 22:37:10:3710,-0.140045,-0.226578,-0.043793,1.083130,0.989456,9.636444
2019-01-28 22:37:10:3710,-0.140045,-0.226578,-0.043793,1.355911,1.149780,9.429459
2019-01-28 22:37:10:3710,0.182236,-0.135376,-0.166885,1.355911,1.149780,9.429459
2019-01-28 22:37:10:3710,0.182236,-0.135376,-0.166885,1.303268,1.196442,9.248810
2019-01-28 22:37:10:3710,0.182236,-0.135376,-0.166885,1.278137,1.166519,9.232056
2019-01-28 22:37:10:3710,0.182236,-0.135376,-0.166885,1.132172,1.015778,9.297852
2019-01-28 22:37:10:3710,0.182236,-0.135376,-0.166885,1.028091,0.873413,9.208130
2019-01-28 22:37:10:3710,0.182236,-0.135376,-0.166885,0.943146,0.899734,9.296661
2019-01-28 22:37:10:3710,0.182236,-0.135376,-0.166885,0.775650,0.886566,9.596954
2019-01-28 22:37:10:3710,0.182236,-0.135376,-0.166885,0.851013,0.707108,9.707031
2019-01-28 22:37:10:3710,0.182236,-0.135376,-0.166885,1.111832,0.673599,9.776428
2019-01-28 22:37:10:3710,0.182236,-0.135376,-0.166885,1.138168,0.772919,9.949905
2019-01-28 22:37:10:3710,0.182236,-0.135376,-0.166885,0.845032,0.733429,10.373428
2019-01-28 22:37:10:3710,-0.195877,0.304062,0.017410,0.845032,0.733429,10.373428
2019-01-28 22:37:10:3710,-0.195877,0.304062,0.017410,0.550720,0.498932,10.465561
2019-01-28 22:37:10:3710,-0.195877,0.304062,0.017410,0.349731,0.417572,10.385391
2019-01-28 22:37:10:3710,-0.195877,0.304062,0.017410,0.092499,0.373306,10.130569
2019-01-28 22:37:10:3710,-0.195877,0.304062,0.017410,0.069763,0.391251,9.832657
2019-01-28 22:37:10:3710,-0.195877,0.304062,0.017410,0.243240,0.598236,9.864960
2019-01-28 22:37:10:3710,-0.195877,0.304062,0.017410,0.490906,0.733429,10.009720
2019-01-28 22:37:10:3710,-0.195877,0.304062,0.017410,0.556702,0.612595,9.858978
2019-01-28 22:37:10:3710,-0.195877,0.304062,0.017410,0.516022,0.591049,9.302643
2019-01-28 22:37:10:3710,-0.195877,0.304062,0.017410,0.543549,0.659256,8.857574
2019-01-28 22:37:10:3710,0.172760,0.178406,0.113861,0.543549,0.659256,8.857574
2019-01-28 22:37:10:3710,0.172760,0.178406,0.113861,0.114029,1.318481,9.421082
2019-01-28 22:37:10:3710,0.172760,0.178406,0.113861,-0.144394,1.231140,9.857788
2019-01-28 22:37:10:3710,0.172760,0.178406,0.113861,0.202560,0.691544,9.850601
2019-01-28 22:37:10:3710,0.172760,0.178406,0.113861,0.463379,0.702316,9.622086
2019-01-28 22:37:10:3710,0.172760,0.178406,0.113861,0.466965,0.789658,9.376816
2019-01-28 22:37:10:3710,0.172760,0.178406,0.113861,0.146332,1.168930,9.037048
2019-01-28 22:37:10:3710,0.172760,0.178406,0.113861,-0.106110,1.596039,9.182999
2019-01-28 22:37:10:3710,0.172760,0.178406,0.113861,0.082916,1.028946,9.350494
2019-01-28 22:37:10:3710,0.172760,0.178406,0.113861,-0.204224,0.896133,9.218887
2019-01-28 22:37:10:3710,0.172760,0.178406,0.113861,-0.085770,0.908112,9.173431
2019-01-28 22:37:10:3710,-0.146530,0.082092,0.060532,-0.085770,0.908112,9.173431
2019-01-28 22:37:10:3710,-0.146530,0.082092,0.060532,0.714630,0.593445,9.872131
2019-01-28 22:37:10:3710,-0.146530,0.082092,0.060532,1.114227,0.358948,10.805328
2019-01-28 22:37:10:3710,-0.146530,0.082092,0.060532,0.355713,0.464233,11.019485
2019-01-28 22:37:10:3710,-0.146530,0.082092,0.060532,-0.107315,0.363739,10.128174
2019-01-28 22:37:10:3710,-0.146530,0.082092,0.060532,-0.512894,0.399628,9.373230
2019-01-28 22:37:10:3710,-0.146530,0.082092,0.060532,-0.345398,0.704712,9.124374
2019-01-28 22:37:10:3710,-0.146530,0.082092,0.060532,0.136765,1.110291,7.950699
2019-01-28 22:37:10:3710,-0.146530,0.082092,0.060532,0.626099,1.734818,8.254578
2019-01-28 22:37:10:3710,-0.146530,0.082092,0.060532,1.341553,1.323257,9.823074
2019-01-28 22:37:10:3710,-0.735641,-0.360062,-0.107086,1.341553,1.323257,9.823074
2019-01-28 22:37:10:3710,-0.735641,-0.360062,-0.107086,0.604553,0.634125,10.088684
2019-01-28 22:37:10:3710,-0.735641,-0.360062,-0.107086,-0.323868,0.409195,8.456787
2019-01-28 22:37:10:3710,-0.735641,-0.360062,-0.107086,-0.382492,0.081390,8.260574
2019-01-28 22:37:10:3710,-0.735641,-0.360062,-0.107086,0.386810,0.258453,9.429459
2019-01-28 22:37:10:3710,-0.735641,-0.360062,-0.107086,0.737366,0.239304,11.293472
2019-01-28 22:37:10:3710,-0.735641,-0.360062,-0.107086,1.901474,-0.234482,12.345123
2019-01-28 22:37:10:3710,-0.735641,-0.360062,-0.107086,2.505661,-0.958313,12.623886
2019-01-28 22:37:10:3710,-0.735641,-0.360062,-0.107086,1.585617,-1.885529,11.845016
2019-01-28 22:37:10:3710,-0.735641,-0.360062,-0.107086,0.039856,-2.307861,11.038635
2019-01-28 22:37:10:3710,-0.735641,-0.360062,-0.107086,-0.201828,-1.276550,11.496857
2019-01-28 22:37:11:3711,0.698898,-0.318756,-0.286316,-0.201828,-1.276550,11.496857
2019-01-28 22:37:11:3711,0.698898,-0.318756,-0.286316,-0.870621,0.284775,8.545319
2019-01-28 22:37:11:3711,0.698898,-0.318756,-0.286316,0.202560,1.094742,7.685104
2019-01-28 22:37:11:3711,0.698898,-0.318756,-0.286316,1.395386,0.378098,8.352692
2019-01-28 22:37:11:3711,0.698898,-0.318756,-0.286316,0.840256,0.181885,9.698654
2019-01-28 22:37:11:3711,0.698898,-0.318756,-0.286316,1.019714,0.775299,11.006332
2019-01-28 22:37:11:3711,0.698898,-0.318756,-0.286316,1.972061,0.921265,12.049606
2019-01-28 22:37:11:3711,0.698898,-0.318756,-0.286316,3.240250,0.961945,11.854584
2019-01-28 22:37:11:3711,0.698898,-0.318756,-0.286316,2.609741,1.271805,10.790985
2019-01-28 22:37:11:3711,0.698898,-0.318756,-0.286316,2.053406,1.465637,9.474930
2019-01-28 22:37:11:3711,0.698898,-0.318756,-0.286316,2.335770,1.444092,8.454391
2019-01-28 22:37:19:3719,-0.032349,0.014221,-0.048630,0.000000,0.000000,0.000000
2019-01-28 22:37:19:3719,-0.032349,0.014221,-0.048630,0.349731,0.978699,9.988190
2019-01-28 22:37:19:3719,-0.032349,0.014221,-0.048630,0.264786,0.957153,9.599350
2019-01-28 22:37:19:3719,-0.032349,0.014221,-0.048630,0.131989,1.179688,9.446213
2019-01-28 22:37:20:3720,-0.032349,0.014221,-0.048630,0.017120,1.206009,9.579010
2019-01-28 22:37:20:3720,-0.032349,0.014221,-0.048630,0.245636,1.018173,9.677124
2019-01-28 22:37:20:3720,-0.032349,0.014221,-0.048630,0.261200,0.983475,9.610123
2019-01-28 22:37:20:3720,-0.032349,0.014221,-0.048630,0.209747,0.948776,9.650803
2019-01-28 22:37:20:3720,-0.032349,0.014221,-0.048630,0.212143,0.800430,9.860168
2019-01-28 22:37:20:3720,-0.032349,0.014221,-0.048630,0.289902,0.902130,10.089874
2019-01-28 22:37:20:3720,-0.032349,0.014221,-0.048630,0.019516,1.341202,10.110214
2019-01-28 22:37:20:3720,-0.032349,0.014221,-0.048630,0.197784,1.286179,9.945114
2019-01-28 22:37:20:3720,-0.032349,0.014221,-0.048630,0.444244,0.771713,9.730957
2019-01-28 22:37:20:3720,-0.032349,0.014221,-0.048630,-0.102524,1.136612,9.606537
2019-01-28 22:37:20:3720,-0.032349,0.014221,-0.048630,-0.051086,1.115082,9.717804
2019-01-28 22:37:20:3720,-0.032349,0.014221,-0.048630,0.064972,1.010986,9.690277
2019-01-28 22:37:20:3720,-0.032349,0.014221,-0.048630,0.143951,1.025345,9.680710
2019-01-28 22:37:20:3720,-0.032349,0.014221,-0.048630,0.220505,1.083984,9.504837
2019-01-28 22:37:20:3720,-0.032349,0.014221,-0.048630,0.161880,1.043304,9.482101
2019-01-28 22:37:20:3720,-0.032349,0.014221,-0.048630,0.136765,1.033722,9.640030
2019-01-28 22:37:20:3720,0.054626,0.013611,-0.010269,0.136765,1.033722,9.640030
2019-01-28 22:37:20:3720,0.054626,0.013611,-0.010269,0.200165,1.027740,9.646011
2019-01-28 22:37:20:3720,0.054626,0.013611,-0.010269,0.154709,1.054062,9.666351
2019-01-28 22:37:20:3720,0.054626,0.013611,-0.010269,0.114029,1.116287,9.630463
2019-01-28 22:37:20:3720,0.054626,0.013611,-0.010269,0.262390,1.106705,9.671127
2019-01-28 22:37:20:3720,0.054626,0.013611,-0.010269,0.263580,1.072006,9.782410
2019-01-28 22:37:20:3720,0.054626,0.013611,-0.010269,0.220505,1.086365,9.789581
2019-01-28 22:37:20:3720,0.054626,0.013611,-0.010269,0.228882,1.109100,9.713013
2019-01-28 22:37:20:3720,0.054626,0.013611,-0.010269,0.225296,1.088760,9.686691
2019-01-28 22:37:20:3720,0.054626,0.013611,-0.010269,0.214523,1.107910,9.677124
2019-01-28 22:37:20:3720,0.054626,0.013611,-0.010269,0.091293,1.074402,9.714203
2019-01-28 22:37:20:3720,-0.000595,0.020020,0.007446,0.091293,1.074402,9.714203
2019-01-28 22:37:20:3720,-0.000595,0.020020,0.007446,0.055405,1.048080,9.738129
2019-01-28 22:37:20:3720,-0.000595,0.020020,0.007446,0.151123,1.052872,9.665161
2019-01-28 22:37:20:3720,-0.000595,0.020020,0.007446,0.215729,1.079193,9.551498
2019-01-28 22:37:20:3720,-0.000595,0.020020,0.007446,0.167877,1.072006,9.642426
2019-01-28 22:37:20:3720,-0.000595,0.020020,0.007446,-0.006805,1.083969,9.702240
2019-01-28 22:37:20:3720,-0.000595,0.020020,0.007446,0.164276,1.060043,9.762070
2019-01-28 22:37:20:3720,-0.000595,0.020020,0.007446,0.227692,1.124649,9.763260
2019-01-28 22:37:20:3720,-0.000595,0.020020,0.007446,0.227692,1.130630,9.782410
2019-01-28 22:37:20:3720,-0.000595,0.020020,0.007446,0.103271,1.109100,9.805130
2019-01-28 22:37:20:3720,0.000381,0.006104,-0.005127,0.103271,1.109100,9.805130
2019-01-28 22:37:20:3720,0.000381,0.006104,-0.005127,0.081726,1.049271,9.803940
2019-01-28 22:37:20:3720,0.000381,0.006104,-0.005127,0.017120,1.043289,9.718994
2019-01-28 22:37:21:3721,0.000381,0.006104,-0.005127,0.082932,1.093552,9.673523
2019-01-28 22:37:21:3721,0.000381,0.006104,-0.005127,0.163086,1.109100,9.613708
2019-01-28 22:37:21:3721,0.000381,0.006104,-0.005127,0.189407,1.118668,9.555084
2019-01-28 22:37:21:3721,0.000381,0.006104,-0.005127,0.183426,1.110291,9.482101
2019-01-28 22:37:21:3721,0.000381,0.006104,-0.005127,0.216919,1.121063,9.602951
2019-01-28 22:37:21:3721,0.000381,0.006104,-0.005127,0.161880,1.117477,9.824280
2019-01-28 22:37:21:3721,0.000381,0.006104,-0.005127,0.164276,1.103119,9.863754
2019-01-28 22:37:21:3721,0.000381,0.006104,-0.005127,0.140350,1.092346,9.812317
2019-01-28 22:37:21:3721,-0.004623,-0.006973,-0.012955,0.140350,1.092346,9.812317
2019-01-28 22:37:21:3721,-0.004623,-0.006973,-0.012955,0.075745,1.109100,9.732147
2019-01-28 22:37:21:3721,-0.004623,-0.006973,-0.012955,0.009949,1.088760,9.705826
2019-01-28 22:37:21:3721,-0.004623,-0.006973,-0.012955,0.056595,1.061249,9.708221
2019-01-28 22:37:21:3721,-0.004623,-0.006973,-0.012955,0.109238,1.092346,9.710617
2019-01-28 22:37:21:3721,-0.004623,-0.006973,-0.012955,0.142746,1.115082,9.667557
2019-01-28 22:37:21:3721,-0.004623,-0.006973,-0.012955,0.190598,1.093552,9.661560
2019-01-28 22:37:21:3721,-0.004623,-0.006973,-0.012955,0.240845,1.081589,9.672333
2019-01-28 22:37:21:3721,-0.004623,-0.006973,-0.012955,0.159485,1.093552,9.721390
2019-01-28 22:37:21:3721,-0.004623,-0.006973,-0.012955,0.124802,1.083984,9.677124
2019-01-28 22:37:21:3721,0.000870,-0.014114,-0.018021,0.124802,1.083984,9.677124
2019-01-28 22:37:21:3721,0.000870,-0.014114,-0.018021,0.139145,1.064835,9.590973
2019-01-28 22:37:21:3721,0.000870,-0.014114,-0.018021,0.170258,1.082779,9.626877
2019-01-28 22:37:21:3721,0.000870,-0.014114,-0.018021,0.210938,1.115082,9.683105
2019-01-28 22:37:21:3721,0.000870,-0.014114,-0.018021,0.189407,1.112686,9.683105
2019-01-28 22:37:21:3721,0.000870,-0.014114,-0.018021,0.179840,1.107910,9.675919
2019-01-28 22:37:21:3721,0.000870,-0.014114,-0.018021,0.151123,1.118668,9.685501
2019-01-28 22:37:21:3721,0.000870,-0.014114,-0.018021,0.079346,1.069626,9.704636
2019-01-28 22:37:21:3721,0.000870,-0.014114,-0.018021,0.064972,1.012192,9.699844
2019-01-28 22:37:21:3721,0.000870,-0.014114,-0.018021,0.164276,1.026550,9.690277
2019-01-28 22:37:21:3721,0.000870,-0.014114,-0.018021,0.230072,1.098328,9.669937
2019-01-28 22:37:21:3721,-0.017624,-0.024078,-0.027298,0.230072,1.098328,9.669937
2019-01-28 22:37:21:3721,-0.017624,-0.024078,-0.027298,0.301865,1.134216,9.697464
2019-01-28 22:37:22:3722,-0.017624,-0.024078,-0.027298,0.242050,1.144989,9.763260
2019-01-28 22:37:22:3722,-0.017624,-0.024078,-0.027298,0.215729,1.115082,9.781204
2019-01-28 22:37:22:3722,-0.017624,-0.024078,-0.027298,0.269562,1.101913,9.777618
2019-01-28 22:37:22:3722,-0.017624,-0.024078,-0.027298,0.236069,1.089951,9.689087
2019-01-28 22:37:22:3722,-0.017624,-0.024078,-0.027298,0.134369,1.048080,9.661560
2019-01-28 22:37:22:3722,-0.017624,-0.024078,-0.027298,0.120010,1.055267,9.667542
2019-01-28 22:37:22:3722,-0.017624,-0.024078,-0.027298,0.143936,1.088760,9.673538
2019-01-28 22:37:22:3722,-0.017624,-0.024078,-0.027298,0.216919,1.103119,9.671143
2019-01-28 22:37:22:3722,-0.017624,-0.024078,-0.027298,0.265976,1.139008,9.640030
2019-01-28 22:37:22:3722,-0.002426,-0.020111,-0.023941,0.265976,1.139008,9.640030
2019-01-28 22:37:22:3722,-0.002426,-0.020111,-0.023941,0.271957,1.153366,9.648407
2019-01-28 22:37:22:3722,-0.002426,-0.020111,-0.023941,0.268372,1.129440,9.680710
2019-01-28 22:37:22:3722,-0.002426,-0.020111,-0.023941,0.289902,1.139008,9.716599
2019-01-28 22:37:22:3722,-0.002426,-0.020111,-0.023941,0.262390,1.152176,9.659164
2019-01-28 22:37:22:3722,-0.002426,-0.020111,-0.023941,0.197769,1.123459,9.623276
2019-01-28 22:37:22:3722,-0.002426,-0.020111,-0.023941,0.198975,1.091156,9.716599
2019-01-28 22:37:22:3722,-0.002426,-0.020111,-0.023941,0.195389,1.061249,9.685501
2019-01-28 22:37:22:3722,-0.002426,-0.020111,-0.023941,0.181030,1.089951,9.617294
2019-01-28 22:37:22:3722,-0.002426,-0.020111,-0.023941,0.246826,1.122253,9.656784
2019-01-28 22:37:22:3722,-0.038208,-0.014175,-0.037140,0.246826,1.122253,9.656784
2019-01-28 22:37:22:3722,-0.038208,-0.014175,-0.037140,0.224106,1.110291,9.687881
2019-01-28 22:37:22:3722,-0.038208,-0.014175,-0.037140,0.145142,1.073212,9.715408
2019-01-28 22:37:22:3722,-0.038208,-0.014175,-0.037140,0.196579,1.079193,9.736938
2019-01-28 22:37:22:3722,-0.038208,-0.014175,-0.037140,0.216919,1.074402,9.726181
2019-01-28 22:37:22:3722,-0.038208,-0.014175,-0.037140,0.179840,1.116272,9.714203
2019-01-28 22:37:22:3722,-0.038208,-0.014175,-0.037140,0.321014,1.022964,9.801544
2019-01-28 22:37:22:3722,-0.038208,-0.014175,-0.037140,0.204956,1.062439,9.823090
2019-01-28 22:37:22:3722,-0.038208,-0.014175,-0.037140,0.166672,0.995438,9.789581
2019-01-28 22:37:22:3722,-0.038208,-0.014175,-0.037140,0.181030,0.988266,9.757278
2019-01-28 22:37:22:3722,-0.038208,-0.014175,-0.037140,0.204956,0.975098,9.675919
2019-01-28 22:37:22:3722,-0.001266,-0.009720,-0.029251,0.204956,0.975098,9.675919
2019-01-28 22:37:22:3722,-0.001266,-0.009720,-0.029251,0.252808,0.906906,9.654388
2019-01-28 22:37:22:3722,-0.001266,-0.009720,-0.029251,0.231277,0.935623,9.663956
2019-01-28 22:37:22:3722,-0.001266,-0.009720,-0.029251,0.154709,0.929642,9.631653
2019-01-28 22:37:22:3722,-0.001266,-0.009720,-0.029251,0.145142,0.948776,9.521591
2019-01-28 22:37:22:3722,-0.001266,-0.009720,-0.029251,0.154709,0.948776,9.518005
2019-01-28 22:37:22:3722,-0.001266,-0.009720,-0.029251,0.184616,0.959549,9.646011
2019-01-28 22:37:22:3722,-0.001266,-0.009720,-0.029251,0.110443,0.916473,9.690277
2019-01-28 22:37:22:3722,-0.001266,-0.009720,-0.029251,0.105667,0.904510,9.703445
2019-01-28 22:37:22:3722,-0.001266,-0.009720,-0.029251,0.245636,0.874603,9.677124
2019-01-28 22:37:22:3722,-0.042175,-0.006241,0.010696,0.245636,0.874603,9.677124
2019-01-28 22:37:22:3722,-0.042175,-0.006241,0.010696,0.285126,0.897339,9.679504
2019-01-28 22:37:22:3722,-0.042175,-0.006241,0.010696,0.326996,0.867416,9.744125
2019-01-28 22:37:22:3722,-0.042175,-0.006241,0.010696,0.286316,0.890152,9.703445
2019-01-28 22:37:22:3722,-0.042175,-0.006241,0.010696,0.325790,0.857864,9.678314
2019-01-28 22:37:22:3722,-0.042175,-0.006241,0.010696,0.342545,0.851868,9.751297
2019-01-28 22:37:22:3722,-0.042175,-0.006241,0.010696,0.347336,0.869812,9.789581
2019-01-28 22:37:22:3722,-0.042175,-0.006241,0.010696,0.265976,0.871017,9.678314
2019-01-28 22:37:22:3722,-0.042175,-0.006241,0.010696,0.258789,0.863831,9.612518
2019-01-28 22:37:22:3722,-0.042175,-0.006241,0.010696,0.261185,0.874603,9.653198
2019-01-28 22:37:22:3722,-0.042175,-0.006241,0.010696,0.184616,0.847092,9.732162
2019-01-28 22:37:22:3722,-0.037109,-0.004837,0.011246,0.184616,0.847092,9.732162
2019-01-28 22:37:22:3722,-0.037109,-0.004837,0.011246,0.159500,0.799225,9.763260
2019-01-28 22:37:22:3722,-0.037109,-0.004837,0.011246,0.192993,0.800430,9.791977
2019-01-28 22:37:22:3722,-0.037109,-0.004837,0.011246,0.297073,0.839905,9.774033
2019-01-28 22:37:22:3722,-0.037109,-0.004837,0.011246,0.298279,0.876999,9.782410
2019-01-28 22:37:22:3722,-0.037109,-0.004837,0.011246,0.297073,0.863831,9.796768
2019-01-28 22:37:22:3722,-0.037109,-0.004837,0.011246,0.282730,0.845886,9.681915
2019-01-28 22:37:22:3722,-0.037109,-0.004837,0.011246,0.350922,0.878189,9.653183
2019-01-28 22:37:22:3722,-0.037109,-0.004837,0.011246,0.402359,0.878189,9.683105
2019-01-28 22:37:22:3722,-0.037109,-0.004837,0.011246,0.348526,0.863831,9.824280
2019-01-28 22:37:22:3722,-0.015549,0.014343,0.001404,0.348526,0.863831,9.824280
2019-01-28 22:37:22:3722,-0.015549,0.014343,0.001404,0.291107,0.824356,9.862564
2019-01-28 22:37:22:3722,-0.015549,0.014343,0.001404,0.195389,0.776505,9.724976
2019-01-28 22:37:22:3722,-0.015549,0.014343,0.001404,0.122406,0.805206,9.636444
2019-01-28 22:37:22:3722,-0.015549,0.014343,0.001404,0.027893,0.774109,9.619690
2019-01-28 22:37:22:3722,-0.015549,0.014343,0.001404,0.024292,0.720261,9.580215
2019-01-28 22:37:22:3722,-0.015549,0.014343,0.001404,0.048233,0.750183,9.587387
2019-01-28 22:37:22:3722,-0.015549,0.014343,0.001404,0.277939,0.819565,9.698654
2019-01-28 22:37:22:3722,-0.015549,0.014343,0.001404,0.390396,0.874603,9.820694
2019-01-28 22:37:22:3722,-0.015549,0.014343,0.001404,0.377243,0.887772,9.795563
2019-01-28 22:37:22:3722,-0.073517,0.019714,-0.001709,0.377243,0.887772,9.795563
2019-01-28 22:37:22:3722,-0.073517,0.019714,-0.001709,0.462189,0.824356,9.680710
2019-01-28 22:37:22:3722,-0.073517,0.019714,-0.001709,0.539948,0.866226,9.663956
2019-01-28 22:37:22:3722,-0.073517,0.019714,-0.001709,0.526794,0.850677,9.642426
2019-01-28 22:37:22:3722,-0.073517,0.019714,-0.001709,0.389206,0.781281,9.720200
2019-01-28 22:37:22:3722,-0.073517,0.019714,-0.001709,0.192993,0.634125,9.916397
2019-01-28 22:37:22:3722,-0.073517,0.019714,-0.001709,0.134369,0.592255,9.952301
2019-01-28 22:37:22:3722,-0.073517,0.019714,-0.001709,0.041046,0.603027,9.863754
2019-01-28 22:37:22:3722,-0.073517,0.019714,-0.001709,0.073349,0.619766,9.875732
2019-01-28 22:37:22:3722,-0.073517,0.019714,-0.001709,-0.033142,0.628143,9.934357
2019-01-28 22:37:22:3722,-0.073517,0.019714,-0.001709,0.000366,0.637711,9.947510
2019-01-28 22:37:22:3722,0.035751,0.002426,0.010147,0.000366,0.637711,9.947510
2019-01-28 22:37:22:3722,0.035751,0.002426,0.010147,0.096085,0.680786,9.768051
2019-01-28 22:37:22:3722,0.035751,0.002426,0.010147,0.125992,0.723862,9.709427
2019-01-28 22:37:22:3722,0.035751,0.002426,0.010147,0.238464,0.727448,9.830261
2019-01-28 22:37:22:3722,0.035751,0.002426,0.010147,0.250412,0.726242,9.702240
2019-01-28 22:37:22:3722,0.035751,0.002426,0.010147,0.282730,0.726257,9.580215
2019-01-28 22:37:22:3722,0.035751,0.002426,0.010147,0.389206,0.747787,9.606537
2019-01-28 22:37:22:3722,0.035751,0.002426,0.010147,0.309052,0.788467,9.641220
2019-01-28 22:37:22:3722,0.035751,0.002426,0.010147,0.277939,0.762131,9.696259
2019-01-28 22:37:22:3722,0.035751,0.002426,0.010147,0.265976,0.759750,9.583801
2019-01-28 22:37:22:3722,-0.039200,0.018616,-0.057724,0.265976,0.759750,9.583801
2019-01-28 22:37:22:3722,-0.039200,0.018616,-0.057724,0.176239,0.781281,9.435440
2019-01-28 22:37:22:3722,-0.039200,0.018616,-0.057724,0.184616,0.819565,9.528763
2019-01-28 22:37:22:3722,-0.039200,0.018616,-0.057724,0.242050,0.827942,9.696259
2019-01-28 22:37:22:3722,-0.039200,0.018616,-0.057724,0.230087,0.819565,9.852997
2019-01-28 22:37:22:3722,-0.039200,0.018616,-0.057724,0.228882,0.860245,9.829056
2019-01-28 22:37:22:3722,-0.039200,0.018616,-0.057724,0.197769,0.897339,9.836243
2019-01-28 22:37:22:3722,-0.039200,0.018616,-0.057724,0.164276,0.911697,9.845810
2019-01-28 22:37:22:3722,-0.039200,0.018616,-0.057724,0.163086,0.818375,9.965454
2019-01-28 22:37:22:3722,-0.039200,0.018616,-0.057724,0.148727,0.638916,9.989380
2019-01-28 22:37:22:3722,-0.039200,0.018616,-0.057724,0.024307,0.597031,9.896057
2019-01-28 22:37:23:3723,-0.014832,0.054535,-0.053085,0.024307,0.597031,9.896057
2019-01-28 22:37:23:3723,-0.014832,0.054535,-0.053085,0.061386,0.623352,9.805130
2019-01-28 22:37:23:3723,-0.014832,0.054535,-0.053085,0.078140,0.680786,9.715408
2019-01-28 22:37:23:3723,-0.014832,0.054535,-0.053085,-0.049881,0.707108,9.654388
2019-01-28 22:37:23:3723,-0.014832,0.054535,-0.053085,0.080536,0.671219,9.701050
2019-01-28 22:37:23:3723,-0.014832,0.054535,-0.053085,0.137955,0.690353,9.758484
2019-01-28 22:37:23:3723,-0.014832,0.054535,-0.053085,0.060196,0.717880,9.687881
2019-01-28 22:37:23:3723,-0.014832,0.054535,-0.053085,-0.042709,0.703522,9.727371
2019-01-28 22:37:23:3723,-0.014832,0.054535,-0.053085,-0.102524,0.622162,9.881699
2019-01-28 22:37:23:3723,-0.014832,0.054535,-0.053085,-0.122864,0.556366,9.735748
2019-01-28 22:37:23:3723,-0.017197,0.034500,-0.014542,-0.122864,0.556366,9.735748
2019-01-28 22:37:23:3723,-0.017197,0.034500,-0.014542,-0.139618,0.644897,9.592178
2019-01-28 22:37:23:3723,-0.017197,0.034500,-0.014542,-0.046295,0.686768,9.640030
2019-01-28 22:37:23:3723,-0.017197,0.034500,-0.014542,-0.043900,0.690353,9.765656
2019-01-28 22:37:23:3723,-0.017197,0.034500,-0.014542,-0.006821,0.664032,9.864960
2019-01-28 22:37:23:3723,-0.017197,0.034500,-0.014542,-0.013992,0.693939,9.802750
2019-01-28 22:37:23:3723,-0.017197,0.034500,-0.014542,-0.029541,0.664032,9.668747
2019-01-28 22:37:23:3723,-0.017197,0.034500,-0.014542,-0.138412,0.658051,9.776428
2019-01-28 22:37:23:3723,-0.017197,0.034500,-0.014542,-0.085785,0.587463,9.971436
2019-01-28 22:37:23:3723,-0.017197,0.034500,-0.014542,0.048233,0.539612,9.843414
2019-01-28 22:37:23:3723,-0.017197,0.034500,-0.014542,-0.073807,0.506104,9.445023
2019-01-28 22:37:23:3723,-0.019531,-0.020477,0.009949,-0.073807,0.506104,9.445023
2019-01-28 22:37:23:3723,-0.019531,-0.020477,0.009949,-0.137222,0.563538,9.415100
2019-01-28 22:37:23:3723,-0.019531,-0.020477,0.009949,-0.006821,0.552765,9.713013
2019-01-28 22:37:23:3723,-0.019531,-0.020477,0.009949,-0.011597,0.531235,9.760864
2019-01-28 22:37:23:3723,-0.019531,-0.020477,0.009949,-0.144394,0.484573,9.527573
2019-01-28 22:37:23:3723,-0.019531,-0.020477,0.009949,-0.140808,0.484573,9.477310
2019-01-28 22:37:23:3723,-0.019531,-0.020477,0.009949,-0.065445,0.508499,9.715408
2019-01-28 22:37:23:3723,-0.019531,-0.020477,0.009949,0.042252,0.526443,9.823074
2019-01-28 22:37:23:3723,-0.019531,-0.020477,0.009949,0.069763,0.482178,9.715408
2019-01-28 22:37:23:3723,-0.019531,-0.020477,0.009949,0.080536,0.498932,9.812317
2019-01-28 22:37:23:3723,-0.041092,-0.012665,0.044891,0.080536,0.498932,9.812317
2019-01-28 22:37:23:3723,-0.041092,-0.012665,0.044891,-0.057068,0.530029,9.994171
2019-01-28 22:37:23:3723,-0.041092,-0.012665,0.044891,-0.122864,0.536011,10.098251
2019-01-28 22:37:23:3723,-0.041092,-0.012665,0.044891,-0.136017,0.492950,9.994171
2019-01-28 22:37:23:3723,-0.041092,-0.012665,0.044891,-0.061859,0.494141,9.742920
2019-01-28 22:37:23:3723,-0.041092,-0.012665,0.044891,-0.002029,0.544388,9.573029
2019-01-28 22:37:23:3723,-0.041092,-0.012665,0.044891,0.013535,0.577896,9.533539
2019-01-28 22:37:23:3723,-0.041092,-0.012665,0.044891,-0.035522,0.593445,9.594574
2019-01-28 22:37:23:3723,-0.041092,-0.012665,0.044891,0.047043,0.618576,9.660370
2019-01-28 22:37:23:3723,-0.041092,-0.012665,0.044891,0.220505,0.655655,9.671143
2019-01-28 22:37:23:3723,-0.041092,-0.012665,0.044891,0.189407,0.652069,9.750092
2019-01-28 22:37:23:3723,-0.041092,-0.012665,0.044891,0.181030,0.570724,9.819489
2019-01-28 22:37:23:3723,-0.041092,-0.012665,0.044891,0.078140,0.539612,9.824280
2019-01-28 22:37:23:3723,-0.041092,-0.012665,0.044891,0.051819,0.478592,9.805130
2019-01-28 22:37:23:3723,-0.041092,-0.012665,0.044891,0.063782,0.418777,9.756088
2019-01-28 22:37:23:3723,-0.041092,-0.012665,0.044891,-0.010406,0.400833,9.708237
2019-01-28 22:37:23:3723,-0.041092,-0.012665,0.044891,-0.018784,0.404419,9.579010
2019-01-28 22:37:23:3723,-0.041092,-0.012665,0.044891,0.038651,0.415176,9.496460
2019-01-28 22:37:23:3723,-0.041092,-0.012665,0.044891,0.060196,0.478592,9.468948
2019-01-28 22:37:23:3723,-0.041092,-0.012665,0.044891,0.096085,0.500122,9.614899
2019-01-28 22:37:24:3724,-0.012878,-0.025604,-0.016251,0.096085,0.500122,9.614899
2019-01-28 22:37:24:3724,-0.012878,-0.025604,-0.016251,0.073349,0.478592,9.795563
2019-01-28 22:37:24:3724,-0.012878,-0.025604,-0.016251,-0.029541,0.398438,9.873337
2019-01-28 22:37:24:3724,-0.012878,-0.025604,-0.016251,-0.000824,0.394836,9.881714
2019-01-28 22:37:24:3724,-0.012878,-0.025604,-0.016251,0.128387,0.460648,9.785995
2019-01-28 22:37:24:3724,-0.012878,-0.025604,-0.016251,0.088913,0.508499,9.705826
2019-01-28 22:37:24:3724,-0.012878,-0.025604,-0.016251,0.163086,0.497726,9.708221
2019-01-28 22:37:24:3724,-0.012878,-0.025604,-0.016251,0.203766,0.467819,9.661560
2019-01-28 22:37:24:3724,-0.012878,-0.025604,-0.016251,0.127197,0.470215,9.624481
2019-01-28 22:37:24:3724,-0.012878,-0.025604,-0.016251,0.017120,0.417572,9.690277
2019-01-28 22:37:24:3724,-0.038879,-0.013687,-0.009827,0.017120,0.417572,9.690277
2019-01-28 22:37:24:3724,-0.038879,-0.013687,-0.009827,-0.065430,0.380478,9.785995
2019-01-28 22:37:24:3724,-0.038879,-0.013687,-0.009827,-0.002029,0.352966,9.801544
2019-01-28 22:37:24:3724,-0.038879,-0.013687,-0.009827,0.131973,0.412796,9.758469
2019-01-28 22:37:24:3724,-0.038879,-0.013687,-0.009827,0.175049,0.419968,9.705841
2019-01-28 22:37:24:3724,-0.038879,-0.013687,-0.009827,0.102066,0.412781,9.705841
2019-01-28 22:37:24:3724,-0.038879,-0.013687,-0.009827,0.108047,0.415176,9.705841
2019-01-28 22:37:24:3724,-0.038879,-0.013687,-0.009827,0.103256,0.408005,9.588593
2019-01-28 22:37:24:3724,-0.038879,-0.013687,-0.009827,0.130783,0.433136,9.647217
2019-01-28 22:37:24:3724,-0.038879,-0.013687,-0.009827,0.163086,0.411591,9.684296
2019-01-28 22:37:24:3724,-0.038879,-0.013687,-0.009827,0.112839,0.387665,9.732162
2019-01-28 22:37:24:3724,-0.043716,-0.000488,-0.025955,0.112839,0.387665,9.732162
2019-01-28 22:37:24:3724,-0.043716,-0.000488,-0.025955,0.289902,0.364929,9.835052
2019-01-28 22:37:24:3724,-0.043716,-0.000488,-0.025955,0.374847,0.363739,9.897263
2019-01-28 22:37:24:3724,-0.043716,-0.000488,-0.025955,0.194199,0.321869,9.839828
2019-01-28 22:37:24:3724,-0.043716,-0.000488,-0.025955,0.050613,0.376892,9.876923
2019-01-28 22:37:24:3724,-0.043716,-0.000488,-0.025955,0.104462,0.423553,9.866150
2019-01-28 22:37:24:3724,-0.043716,-0.000488,-0.025955,0.184616,0.491745,9.866150
2019-01-28 22:37:24:3724,-0.043716,-0.000488,-0.025955,0.240845,0.598236,9.899643
2019-01-28 22:37:24:3724,-0.043716,-0.000488,-0.025955,0.384415,0.634125,10.031265
2019-01-28 22:37:24:3724,-0.043716,-0.000488,-0.025955,0.472961,0.638916,10.130554
2019-01-28 22:37:24:3724,0.016632,-0.005875,-0.085693,0.472961,0.638916,10.130554
2019-01-28 22:37:24:3724,0.016632,-0.005875,-0.085693,0.486115,0.601822,9.851791
2019-01-28 22:37:24:3724,0.016632,-0.005875,-0.085693,0.468170,0.635330,9.386398
2019-01-28 22:37:24:3724,0.016632,-0.005875,-0.085693,0.383224,0.662842,9.127975
2019-01-28 22:37:24:3724,0.016632,-0.005875,-0.085693,0.201370,0.475006,9.142319
2019-01-28 22:37:24:3724,0.016632,-0.005875,-0.085693,-0.015198,0.282379,9.539536
2019-01-28 22:37:24:3724,0.016632,-0.005875,-0.085693,-0.126450,0.202225,10.143723
2019-01-28 22:37:24:3724,0.016632,-0.005875,-0.085693,-0.046295,0.196243,10.422485
2019-01-28 22:37:24:3724,0.016632,-0.005875,-0.085693,0.212143,0.387665,10.381805
2019-01-28 22:37:24:3724,0.016632,-0.005875,-0.085693,0.370056,0.693939,10.179611
2019-01-28 22:37:24:3724,0.016632,-0.005875,-0.085693,0.504059,0.929642,9.960663
2019-01-28 22:37:24:3724,-0.029602,-0.083389,-0.067688,0.504059,0.929642,9.960663
2019-01-28 22:37:24:3724,-0.029602,-0.083389,-0.067688,0.635666,1.044495,9.704636
2019-01-28 22:37:24:3724,-0.029602,-0.083389,-0.067688,0.620117,0.954758,9.480911
2019-01-28 22:37:24:3724,-0.029602,-0.083389,-0.067688,0.590210,0.777695,9.541931
2019-01-28 22:37:24:3724,-0.029602,-0.083389,-0.067688,0.444244,0.620956,9.709427
2019-01-28 22:37:24:3724,-0.029602,-0.083389,-0.067688,0.292297,0.528839,9.843414
2019-01-28 22:37:24:3724,-0.029602,-0.083389,-0.067688,0.386810,0.519272,9.905624
2019-01-28 22:37:24:3724,-0.029602,-0.083389,-0.067688,0.511230,0.519272,9.868546
2019-01-28 22:37:24:3724,-0.029602,-0.083389,-0.067688,0.519608,0.519272,9.780014
2019-01-28 22:37:24:3724,-0.029602,-0.083389,-0.067688,0.561493,0.457062,9.855392
2019-01-28 22:37:24:3724,-0.064117,0.031937,-0.171585,0.561493,0.457062,9.855392
2019-01-28 22:37:24:3724,-0.064117,0.031937,-0.171585,0.458588,0.413986,9.912811
2019-01-28 22:37:24:3724,-0.064117,0.031937,-0.171585,0.341354,0.419968,9.683105
2019-01-28 22:37:24:3724,-0.064117,0.031937,-0.171585,0.306656,0.385269,9.349304
2019-01-28 22:37:24:3724,-0.064117,0.031937,-0.171585,0.299469,0.363739,9.361267
2019-01-28 22:37:24:3724,-0.064117,0.031937,-0.171585,0.367676,0.349380,9.757278
2019-01-28 22:37:24:3724,-0.064117,0.031937,-0.171585,0.481339,0.125656,10.000153
2019-01-28 22:37:24:3724,-0.064117,0.031937,-0.171585,0.389206,0.028748,9.943924
2019-01-28 22:37:24:3724,-0.064117,0.031937,-0.171585,0.330582,-0.043045,9.732147
2019-01-28 22:37:24:3724,-0.064117,0.031937,-0.171585,0.325790,-0.047836,9.545517
2019-01-28 22:37:24:3724,-0.064117,0.031937,-0.171585,0.368866,-0.068176,9.427078
2019-01-28 22:37:25:3725,-0.137299,-0.002151,-0.115570,0.368866,-0.068176,9.427078
2019-01-28 22:37:25:3725,-0.137299,-0.002151,-0.115570,0.518417,-0.118423,9.630463
2019-01-28 22:37:25:3725,-0.137299,-0.002151,-0.115570,0.600967,-0.276352,9.736938
2019-01-28 22:37:25:3725,-0.137299,-0.002151,-0.115570,0.277939,-0.315842,9.619690
2019-01-28 22:37:25:3725,-0.137299,-0.002151,-0.115570,0.155899,-0.323013,9.579010
2019-01-28 22:37:25:3725,-0.137299,-0.002151,-0.115570,0.315033,-0.282333,9.535934
2019-01-28 22:37:25:3725,-0.137299,-0.002151,-0.115570,0.477737,-0.144745,9.472534
2019-01-28 22:37:25:3725,-0.137299,-0.002151,-0.115570,0.801971,-0.011948,9.307434
2019-01-28 22:37:25:3725,-0.137299,-0.002151,-0.115570,0.876144,0.154358,9.224869
2019-01-28 22:37:25:3725,-0.137299,-0.002151,-0.115570,0.689499,0.172318,9.571838
2019-01-28 22:37:25:3725,-0.062286,-0.013214,0.232117,0.689499,0.172318,9.571838
2019-01-28 22:37:25:3725,-0.062286,-0.013214,0.232117,0.378433,0.021561,9.990585
2019-01-28 22:37:25:3725,-0.062286,-0.013214,0.232117,0.080536,-0.148331,10.192764
2019-01-28 22:37:25:3725,-0.062286,-0.013214,0.232117,-0.199432,-0.232086,10.374619
2019-01-28 22:37:25:3725,-0.062286,-0.013214,0.232117,0.102066,-0.204575,10.040833
2019-01-28 22:37:25:3725,-0.062286,-0.013214,0.232117,0.244446,-0.022720,9.893677
2019-01-28 22:37:25:3725,-0.062286,-0.013214,0.232117,0.535172,0.099335,10.088684
2019-01-28 22:37:25:3725,-0.062286,-0.013214,0.232117,0.727783,0.269226,10.094666
2019-01-28 22:37:25:3725,-0.062286,-0.013214,0.232117,1.379837,0.357758,9.771637
2019-01-28 22:37:25:3725,-0.062286,-0.013214,0.232117,0.563889,0.491760,9.507233
2019-01-28 22:37:25:3725,0.025131,0.076157,0.406754,0.563889,0.491760,9.507233
2019-01-28 22:37:25:3725,0.025131,0.076157,0.406754,0.212128,0.180679,9.669937
2019-01-28 22:37:25:3725,0.025131,0.076157,0.406754,-0.350189,-0.016739,10.239441
2019-01-28 22:37:25:3725,0.025131,0.076157,0.406754,-0.620575,-0.656815,10.321991
2019-01-28 22:37:25:3725,0.025131,0.076157,0.406754,-0.375305,-0.729797,9.837433
2019-01-28 22:37:25:3725,0.025131,0.076157,0.406754,0.093689,-0.471359,9.584991
2019-01-28 22:37:25:3725,0.025131,0.076157,0.406754,-0.039124,-0.373260,9.466553
2019-01-28 22:37:25:3725,0.025131,0.076157,0.406754,-0.222168,-0.404373,9.564651
2019-01-28 22:37:25:3725,0.025131,0.076157,0.406754,-0.151581,-0.062195,9.541916
2019-01-28 22:37:25:3725,0.025131,0.076157,0.406754,0.402359,0.526443,9.239227
2019-01-28 22:37:25:3725,0.025131,0.076157,0.406754,0.484924,0.655655,9.007126
2019-01-28 22:37:25:3725,0.044357,-0.094391,0.528015,0.484924,0.655655,9.007126
2019-01-28 22:37:25:3725,0.044357,-0.094391,0.528015,0.003967,0.630539,9.458176
2019-01-28 22:37:25:3725,0.044357,-0.094391,0.528015,-0.226959,0.368530,9.489288
2019-01-28 22:37:25:3725,0.044357,-0.094391,0.528015,-0.019974,0.746582,9.142319
2019-01-28 22:37:25:3725,0.044357,-0.094391,0.528015,-0.291550,0.728638,8.703247
2019-01-28 22:37:25:3725,0.044357,-0.094391,0.528015,-1.505920,0.762146,9.631653
2019-01-28 22:37:25:3725,0.044357,-0.094391,0.528015,-2.094559,1.349579,9.976212
2019-01-28 22:37:25:3725,0.044357,-0.094391,0.528015,-1.630341,0.220169,10.164063
2019-01-28 22:37:25:3725,0.044357,-0.094391,0.528015,-1.120682,0.370911,10.531357
2019-01-28 22:37:25:3725,0.044357,-0.094391,0.528015,-0.475800,0.349380,9.532349
2019-01-28 22:37:25:3725,0.063065,0.242859,0.929596,-0.475800,0.349380,9.532349
2019-01-28 22:37:25:3725,0.063065,0.242859,0.929596,-0.460251,0.119675,10.343521
2019-01-28 22:37:25:3725,0.063065,0.242859,0.929596,-1.179291,-0.066971,12.101044
2019-01-28 22:37:25:3725,0.063065,0.242859,0.929596,-1.596848,0.236908,13.090485
2019-01-28 22:37:25:3725,0.063065,0.242859,0.929596,-0.926849,0.638916,6.461166
2019-01-28 22:37:25:3725,0.063065,0.242859,0.929596,-0.256866,1.506302,6.961258
2019-01-28 22:37:25:3725,0.063065,0.242859,0.929596,-0.534439,1.083984,7.450592
2019-01-28 22:37:25:3725,0.063065,0.242859,0.929596,-1.113495,-0.209351,8.786987
2019-01-28 22:37:25:3725,0.063065,0.242859,0.929596,0.696686,-1.000183,10.677322
2019-01-28 22:37:25:3725,0.063065,0.242859,0.929596,1.220703,-1.841263,9.318192
2019-01-28 22:37:25:3725,0.063065,0.242859,0.929596,0.976639,-1.350739,8.868347
2019-01-28 22:37:26:3726,-0.226791,-0.526642,0.614273,0.976639,-1.350739,8.868347
2019-01-28 22:37:26:3726,-0.226791,-0.526642,0.614273,0.178635,-0.650833,9.983398
2019-01-28 22:37:26:3726,-0.226791,-0.526642,0.614273,1.220718,-0.739365,8.920990
2019-01-28 22:37:26:3726,-0.226791,-0.526642,0.614273,2.202972,-0.908051,9.186600
2019-01-28 22:37:26:3726,-0.226791,-0.526642,0.614273,1.902664,-0.118423,9.817093
2019-01-28 22:37:26:3726,-0.226791,-0.526642,0.614273,1.883530,-0.141159,9.833847
2019-01-28 22:37:26:3726,-0.226791,-0.526642,0.614273,1.446838,0.287155,9.273926
2019-01-28 22:37:26:3726,-0.226791,-0.526642,0.614273,1.282928,0.059845,9.812317
2019-01-28 22:37:26:3726,-0.226791,-0.526642,0.614273,1.803360,-0.585022,11.238434
2019-01-28 22:37:26:3726,-0.226791,-0.526642,0.614273,2.100067,-0.005966,10.896271
2019-01-28 22:37:26:3726,0.453278,0.314148,0.110138,2.100067,-0.005966,10.896271
2019-01-28 22:37:26:3726,0.453278,0.314148,0.110138,1.335571,0.807602,8.650589
2019-01-28 22:37:26:3726,0.453278,0.314148,0.110138,0.246826,1.679794,8.568054
2019-01-28 22:37:26:3726,0.453278,0.314148,0.110138,-0.159958,1.920258,8.607529
2019-01-28 22:37:26:3726,0.453278,0.314148,0.110138,-0.375305,1.825745,9.421082
2019-01-28 22:37:26:3726,0.453278,0.314148,0.110138,-0.350189,1.433334,10.467941
2019-01-28 22:37:26:3726,0.453278,0.314148,0.110138,-0.451874,1.263443,10.674927
2019-01-28 22:37:26:3726,0.453278,0.314148,0.110138,-0.388474,1.140198,10.487091
2019-01-28 22:37:26:3726,0.453278,0.314148,0.110138,-0.412399,0.933228,10.726379
2019-01-28 22:37:26:3726,0.453278,0.314148,0.110138,-0.344208,0.781281,10.500244
2019-01-28 22:37:26:3726,-0.279877,0.040054,-0.027374,-0.344208,0.781281,10.500244
2019-01-28 22:37:26:3726,-0.279877,0.040054,-0.027374,-0.401627,0.408005,9.710617
2019-01-28 22:37:26:3726,-0.279877,0.040054,-0.027374,-0.608612,0.239304,9.156677
2019-01-28 22:37:26:3726,-0.279877,0.040054,-0.027374,-1.123062,0.190247,9.038239
2019-01-28 22:37:26:3726,-0.279877,0.040054,-0.027374,-1.259460,0.266830,8.715195
2019-01-28 22:37:26:3726,-0.279877,0.040054,-0.027374,-1.275009,0.235718,8.414902
2019-01-28 22:37:26:3726,-0.279877,0.040054,-0.027374,-1.053665,-0.175858,8.833649
2019-01-28 22:37:26:3726,-0.279877,0.040054,-0.027374,-0.620575,-0.595795,9.569443
2019-01-28 22:37:26:3726,-0.279877,0.040054,-0.027374,-0.157562,-1.016922,9.886490
2019-01-28 22:37:26:3726,-0.279877,0.040054,-0.027374,-0.053467,-1.354324,9.726166
2019-01-28 22:37:26:3726,-0.279877,0.040054,-0.027374,0.362885,-1.641464,9.534744
2019-01-28 22:37:26:3726,0.097137,0.169312,-0.362671,0.362885,-1.641464,9.534744
2019-01-28 22:37:26:3726,0.097137,0.169312,-0.362671,0.527985,-1.774261,9.659180
2019-01-28 22:37:26:3726,0.097137,0.169312,-0.362671,-0.352570,-1.853226,10.010925
2019-01-28 22:37:26:3726,0.097137,0.169312,-0.362671,-0.515289,-1.777847,10.467941
2019-01-28 22:37:26:3726,0.097137,0.169312,-0.362671,-0.499741,-1.817337,10.502640
2019-01-28 22:37:26:3726,0.097137,0.169312,-0.362671,-0.792847,-1.313644,9.908020
2019-01-28 22:37:26:3726,0.097137,0.169312,-0.362671,-1.136230,-0.884125,9.911621
2019-01-28 22:37:26:3726,0.097137,0.169312,-0.362671,-1.261856,-0.500076,9.850601
2019-01-28 22:37:26:3726,0.097137,0.169312,-0.362671,-0.704330,-0.488113,9.551498
2019-01-28 22:37:26:3726,0.097137,0.169312,-0.362671,-0.695953,-0.448639,9.862564
2019-01-28 22:37:26:3726,-0.134857,-0.030258,-0.141968,-0.695953,-0.448639,9.862564
2019-01-28 22:37:26:3726,-0.134857,-0.030258,-0.141968,-0.855072,-0.387619,10.684494
2019-01-28 22:37:26:3726,-0.134857,-0.030258,-0.141968,-0.713898,-0.555115,11.282700
2019-01-28 22:37:26:3726,-0.134857,-0.030258,-0.141968,-0.691162,-0.726196,11.239624
2019-01-28 22:37:26:3726,-0.134857,-0.030258,-0.141968,-0.650482,-0.726196,10.988388
2019-01-28 22:37:26:3726,-0.134857,-0.030258,-0.141968,-0.609802,-0.789612,10.825668
2019-01-28 22:37:26:3726,-0.134857,-0.030258,-0.141968,-0.383682,-0.794403,10.383011
2019-01-28 22:37:26:3726,-0.134857,-0.030258,-0.141968,-0.360947,-0.601776,9.516800
2019-01-28 22:37:26:3726,-0.134857,-0.030258,-0.141968,-0.547592,-0.400772,9.409119
2019-01-28 22:37:26:3726,-0.134857,-0.030258,-0.141968,-0.774918,-0.290710,9.736938
2019-01-28 22:37:26:3726,-0.134857,-0.030258,-0.141968,-0.768921,-0.302673,9.532349
2019-01-28 22:37:26:3726,-0.134857,-0.030258,-0.141968,-0.551178,-0.358902,9.266754
2019-01-28 22:37:26:3726,-0.134857,-0.030258,-0.141968,-0.230545,-0.515625,9.204529
2019-01-28 22:37:26:3726,-0.134857,-0.030258,-0.141968,-0.089371,-0.690308,9.351700
2019-01-28 22:37:26:3726,-0.134857,-0.030258,-0.141968,0.030289,-0.678345,9.302643
2019-01-28 22:37:26:3726,-0.134857,-0.030258,-0.141968,0.413132,-0.666382,9.346909
2019-01-28 22:37:26:3726,-0.134857,-0.030258,-0.141968,0.527985,-0.723816,9.342133
2019-01-28 22:37:27:3727,-0.134857,-0.030258,-0.141968,0.383224,-0.545547,8.962860
2019-01-28 22:37:27:3727,-0.134857,-0.030258,-0.141968,0.330582,-0.431885,8.731949
2019-01-28 22:37:27:3727,-0.134857,-0.030258,-0.141968,0.187012,-0.362488,9.802750
2019-01-28 22:37:27:3727,-0.428192,-0.273865,0.344635,0.187012,-0.362488,9.802750
2019-01-28 22:37:27:3727,-0.428192,-0.273865,0.344635,0.313828,-0.550339,10.265747
2019-01-28 22:37:27:3727,-0.428192,-0.273865,0.344635,0.471756,-0.692703,9.620895
2019-01-28 22:37:27:3727,-0.428192,-0.273865,0.344635,0.395187,-0.695099,9.845810
2019-01-28 22:37:27:3727,-0.428192,-0.273865,0.344635,0.134369,-0.849442,10.672531
2019-01-28 22:37:27:3727,-0.428192,-0.273865,0.344635,-0.045105,-0.922409,11.116409
2019-01-28 22:37:27:3727,-0.428192,-0.273865,0.344635,-0.205414,-0.876953,10.530151
2019-01-28 22:37:27:3727,-0.428192,-0.273865,0.344635,-0.173111,-0.748932,9.577820
2019-01-28 22:37:27:3727,-0.428192,-0.273865,0.344635,0.178635,-0.748932,9.093262
2019-01-28 22:37:27:3727,-0.428192,-0.273865,0.344635,0.593796,-0.741760,8.880310
2019-01-28 22:37:27:3727,-0.428192,-0.273865,0.344635,0.907257,-0.713043,9.379211
2019-01-28 22:37:27:3727,-0.087753,-0.215820,0.450546,0.907257,-0.713043,9.379211
2019-01-28 22:37:27:3727,-0.087753,-0.215820,0.450546,0.624893,-1.198792,10.477524
2019-01-28 22:37:27:3727,-0.087753,-0.215820,0.450546,-0.211395,-1.457214,11.919189
2019-01-28 22:37:27:3727,-0.087753,-0.215820,0.450546,-0.095352,-1.769470,11.349701
2019-01-28 22:37:27:3727,-0.087753,-0.215820,0.450546,0.343735,-2.039871,9.724976
2019-01-28 22:37:27:3727,-0.087753,-0.215820,0.450546,1.166870,-1.764694,8.437637
2019-01-28 22:37:27:3727,-0.087753,-0.215820,0.450546,1.401367,-1.092316,8.245026
2019-01-28 22:37:27:3727,-0.087753,-0.215820,0.450546,0.757690,-0.343353,8.882706
2019-01-28 22:37:27:3727,-0.087753,-0.215820,0.450546,-0.402817,-0.049026,10.784988
2019-01-28 22:37:27:3727,-0.087753,-0.215820,0.450546,-0.533234,-0.398376,12.610718
2019-01-28 22:37:27:3727,0.176315,-0.385590,0.750122,-0.533234,-0.398376,12.610718
2019-01-28 22:37:27:3727,0.176315,-0.385590,0.750122,0.111633,-1.068375,12.208725
2019-01-28 22:37:27:3727,0.176315,-0.385590,0.750122,0.790009,-1.820923,9.879318
2019-01-28 22:37:27:3727,0.176315,-0.385590,0.750122,1.180023,-1.921417,8.795364
2019-01-28 22:37:27:3727,0.176315,-0.385590,0.750122,0.706253,-2.078156,9.647202
2019-01-28 22:37:27:3727,0.176315,-0.385590,0.750122,0.255203,-1.911850,11.608124
2019-01-28 22:37:27:3727,0.176315,-0.385590,0.750122,0.761292,-2.457413,12.312820
2019-01-28 22:37:27:3727,0.176315,-0.385590,0.750122,2.174255,-2.572266,10.282501
2019-01-28 22:37:27:3727,0.176315,-0.385590,0.750122,3.516617,-2.921616,7.539139
2019-01-28 22:37:27:3727,0.176315,-0.385590,0.750122,3.387421,-2.656021,6.755493
2019-01-28 22:37:27:3727,0.277466,-0.220169,0.855560,3.387421,-2.656021,6.755493
2019-01-28 22:37:27:3727,0.277466,-0.220169,0.855560,2.487701,-2.130798,7.747314
2019-01-28 22:37:27:3727,0.277466,-0.220169,0.855560,2.246033,-1.623505,8.786987
2019-01-28 22:37:27:3727,0.277466,-0.220169,0.855560,1.934967,-0.951126,7.919601
2019-01-28 22:37:27:3727,0.277466,-0.220169,0.855560,1.735168,-0.239258,6.559280
2019-01-28 22:37:27:3727,0.277466,-0.220169,0.855560,1.378647,-0.172272,6.428864
2019-01-28 22:37:27:3727,0.277466,-0.220169,0.855560,1.582031,-0.112442,7.475723
2019-01-28 22:37:27:3727,0.277466,-0.220169,0.855560,1.741150,-0.531189,9.443817
2019-01-28 22:37:27:3727,0.277466,-0.220169,0.855560,1.833267,-1.032486,11.439438
2019-01-28 22:37:27:3727,0.277466,-0.220169,0.855560,2.129990,-1.349533,12.104630
2019-01-28 22:37:27:3727,0.277466,-0.220169,0.855560,2.214920,-1.466782,11.655991
2019-01-28 22:37:27:3727,-0.094238,0.142136,1.364166,2.214920,-1.466782,11.655991
2019-01-28 22:37:27:3727,-0.094238,0.142136,1.364166,1.686111,-1.174850,11.320999
2019-01-28 22:37:27:3727,-0.094238,0.142136,1.364166,1.384613,-1.112640,11.539932
2019-01-28 22:37:27:3727,-0.094238,0.142136,1.364166,1.218323,-1.295685,11.600952
2019-01-28 22:37:27:3727,-0.094238,0.142136,1.364166,1.192001,-1.483536,12.152496
2019-01-28 22:37:27:3727,-0.094238,0.142136,1.364166,1.470764,-1.658203,12.540131
2019-01-28 22:37:27:3727,-0.094238,0.142136,1.364166,1.415726,-1.452423,10.720398
2019-01-28 22:37:27:3727,-0.094238,0.142136,1.364166,1.308044,-1.106659,9.108826
2019-01-28 22:37:27:3727,-0.094238,0.142136,1.364166,1.333176,-0.991806,9.016693
2019-01-28 22:37:27:3727,-0.094238,0.142136,1.364166,1.343933,-1.144943,9.157867
2019-01-28 22:37:28:3728,0.402878,0.175110,0.682983,1.343933,-1.144943,9.157867
2019-01-28 22:37:28:3728,0.402878,0.175110,0.682983,1.406158,-1.043259,9.203339
2019-01-28 22:37:28:3728,0.402878,0.175110,0.682983,1.078339,-0.836273,9.514404
2019-01-28 22:37:28:3728,0.402878,0.175110,0.682983,0.959900,-0.849426,9.902039
2019-01-28 22:37:28:3728,0.402878,0.175110,0.682983,0.781631,-0.874557,10.154480
2019-01-28 22:37:28:3728,0.402878,0.175110,0.682983,0.648819,-0.776459,9.796753
2019-01-28 22:37:28:3728,0.402878,0.175110,0.682983,0.493286,-0.656815,9.308624
2019-01-28 22:37:28:3728,0.402878,0.175110,0.682983,0.145142,-0.372070,9.171036
2019-01-28 22:37:28:3728,0.402878,0.175110,0.682983,0.603363,-0.624512,9.338531
2019-01-28 22:37:28:3728,0.402878,0.175110,0.682983,0.319809,-0.285919,9.623276
2019-01-28 22:37:28:3728,0.402878,0.175110,0.682983,0.465775,-0.071762,9.495270
2019-01-28 22:37:28:3728,0.047058,-0.005753,0.065414,0.465775,-0.071762,9.495270
2019-01-28 22:37:28:3728,0.047058,-0.005753,0.065414,0.577042,0.035919,9.267944
2019-01-28 22:37:28:3728,0.047058,-0.005753,0.065414,0.618912,0.156754,9.570633
2019-01-28 22:37:28:3728,0.047058,-0.005753,0.065414,0.605759,0.369720,9.955887
2019-01-28 22:37:28:3728,0.047058,-0.005753,0.065414,0.975449,0.938019,9.667542
2019-01-28 22:37:28:3728,0.047058,-0.005753,0.065414,-0.743805,0.262039,9.483307
2019-01-28 22:37:28:3728,0.047058,-0.005753,0.065414,-1.040512,0.043091,9.998962
2019-01-28 22:37:28:3728,0.047058,-0.005753,0.065414,-0.510498,0.014389,10.004944
2019-01-28 22:37:28:3728,0.047058,-0.005753,0.065414,-0.448288,-0.320618,9.930756
2019-01-28 22:37:28:3728,0.047058,-0.005753,0.065414,-0.170715,-0.558701,10.107834
2019-01-28 22:37:28:3728,0.165253,0.285065,-0.181610,-0.170715,-0.558701,10.107834
2019-01-28 22:37:28:3728,0.165253,0.285065,-0.181610,-0.088165,-0.506058,10.042023
2019-01-28 22:37:28:3728,0.165253,0.285065,-0.181610,-0.430344,-0.125610,9.662766
2019-01-28 22:37:28:3728,0.165253,0.285065,-0.181610,-0.417175,0.016769,8.952087
2019-01-28 22:37:28:3728,0.165253,0.285065,-0.181610,-0.228149,-0.055008,8.696060
2019-01-28 22:37:28:3728,0.165253,0.285065,-0.181610,-0.171921,-0.136368,9.376816
2019-01-28 22:37:28:3728,0.165253,0.285065,-0.181610,-0.264038,-0.162689,9.902039
2019-01-28 22:37:28:3728,0.165253,0.285065,-0.181610,-0.461456,-0.197388,10.208328
2019-01-28 22:37:28:3728,0.165253,0.285065,-0.181610,-0.686371,-0.143555,10.061172
2019-01-28 22:37:28:3728,0.165253,0.285065,-0.181610,-1.041702,-0.130386,9.147110
2019-01-28 22:37:28:3728,0.165253,0.285065,-0.181610,-1.168533,-0.107666,8.807327
2019-01-28 22:37:28:3728,0.118088,0.066025,0.117218,-1.168533,-0.107666,8.807327
2019-01-28 22:37:28:3728,0.118088,0.066025,0.117218,-0.889771,-0.272766,9.285889
2019-01-28 22:37:28:3728,0.118088,0.066025,0.117218,-0.649292,-0.457016,9.614899
2019-01-28 22:37:28:3728,0.118088,0.066025,0.117218,-0.482986,-0.382828,9.758469
2019-01-28 22:37:28:3728,0.118088,0.066025,0.117218,-0.377701,-0.205765,9.226074
2019-01-28 22:37:28:3728,0.118088,0.066025,0.117218,-0.272415,-0.117233,8.694870
2019-01-28 22:37:28:3728,0.118088,0.066025,0.117218,-0.238922,-0.010757,8.679306
2019-01-28 22:37:28:3728,0.118088,0.066025,0.117218,0.061386,0.124451,8.700851
2019-01-28 22:37:28:3728,0.118088,0.066025,0.117218,0.331772,0.296738,8.327560
2019-01-28 22:37:28:3728,0.118088,0.066025,0.117218,0.130783,0.510895,7.880112
2019-01-28 22:37:28:3728,-0.113297,-0.312958,0.128082,0.130783,0.510895,7.880112
2019-01-28 22:37:28:3728,-0.113297,-0.312958,0.128082,0.816315,0.643692,9.076523
2019-01-28 22:37:28:3728,-0.113297,-0.312958,0.128082,1.432480,0.065826,10.313614
2019-01-28 22:37:28:3728,-0.113297,-0.312958,0.128082,1.400177,-0.129196,11.318588
2019-01-28 22:37:28:3728,-0.113297,-0.312958,0.128082,0.397583,-0.312241,11.240829
2019-01-28 22:37:28:3728,-0.113297,-0.312958,0.128082,-0.724655,-0.356506,9.983398
2019-01-28 22:37:28:3728,-0.113297,-0.312958,0.128082,-1.742813,-0.070572,9.198563
2019-01-28 22:37:28:3728,-0.113297,-0.312958,0.128082,-1.757156,-0.005966,9.194962
2019-01-28 22:37:28:3728,-0.113297,-0.312958,0.128082,-1.176910,-0.189011,9.239227
2019-01-28 22:37:28:3728,-0.113297,-0.312958,0.128082,-1.062042,-0.061005,8.961670
2019-01-28 22:37:28:3728,-0.247925,-0.286560,-0.177582,-1.062042,-0.061005,8.961670
2019-01-28 22:37:28:3728,-0.247925,-0.286560,-0.177582,-0.937622,0.157959,9.013107
2019-01-28 22:37:28:3728,-0.247925,-0.286560,-0.177582,-0.317886,0.007202,9.416306
2019-01-28 22:37:29:3729,-0.247925,-0.286560,-0.177582,0.070953,-0.239273,9.783600
2019-01-28 22:37:29:3729,-0.247925,-0.286560,-0.177582,0.329391,-0.437866,10.162857
2019-01-28 22:37:29:3729,-0.247925,-0.286560,-0.177582,-0.000824,-0.236877,10.070740
2019-01-28 22:37:29:3729,-0.247925,-0.286560,-0.177582,-0.353775,-0.108856,10.037247
2019-01-28 22:37:29:3729,-0.247925,-0.286560,-0.177582,-0.631348,-0.065781,10.057587
2019-01-28 22:37:29:3729,-0.247925,-0.286560,-0.177582,-1.035721,-0.071762,9.872131
2019-01-28 22:37:29:3729,-0.247925,-0.286560,-0.177582,-1.001038,-0.110046,9.246414
2019-01-28 22:37:29:3729,-0.247925,-0.286560,-0.177582,-0.299927,-0.519226,9.182999
2019-01-28 22:37:29:3729,-0.059723,-0.105255,0.307983,-0.299927,-0.519226,9.182999
2019-01-28 22:37:29:3729,-0.059723,-0.105255,0.307983,0.641647,-1.170074,10.002548
2019-01-28 22:37:29:3729,-0.059723,-0.105255,0.307983,1.677734,-1.568481,10.893860
2019-01-28 22:37:29:3729,-0.059723,-0.105255,0.307983,2.213730,-1.289703,10.272934
2019-01-28 22:37:29:3729,-0.059723,-0.105255,0.307983,1.272156,-1.226303,10.027664
2019-01-28 22:37:29:3729,-0.059723,-0.105255,0.307983,1.732773,-0.577850,9.687881
2019-01-28 22:37:29:3729,-0.059723,-0.105255,0.307983,1.591599,-0.492905,9.680710
2019-01-28 22:37:29:3729,-0.059723,-0.105255,0.307983,1.751923,-0.455811,9.757278
2019-01-28 22:37:29:3729,-0.059723,-0.105255,0.307983,1.835663,-0.312241,9.832657
2019-01-28 22:37:29:3729,-0.059723,-0.105255,0.307983,1.604767,-0.122009,9.768051
2019-01-28 22:37:29:3729,0.272217,0.281952,0.004211,1.604767,-0.122009,9.768051
2019-01-28 22:37:29:3729,0.272217,0.281952,0.004211,1.168076,0.023956,9.413910
2019-01-28 22:37:29:3729,0.272217,0.281952,0.004211,0.650024,0.106506,8.639832
2019-01-28 22:37:29:3729,0.272217,0.281952,0.004211,0.044647,-0.031082,8.536942
2019-01-28 22:37:29:3729,0.272217,0.281952,0.004211,-0.315491,-0.288315,9.254776
2019-01-28 22:37:29:3729,0.272217,0.281952,0.004211,0.143936,-0.549133,10.101837
2019-01-28 22:37:29:3729,0.272217,0.281952,0.004211,0.825897,-1.002579,10.735947
2019-01-28 22:37:29:3729,0.272217,0.281952,0.004211,0.989807,-0.926010,10.866348
2019-01-28 22:37:29:3729,0.272217,0.281952,0.004211,0.799576,-0.646042,10.172440
2019-01-28 22:37:29:3729,0.272217,0.281952,0.004211,0.816315,-0.230896,9.748901
2019-01-28 22:37:29:3729,0.272217,0.281952,0.004211,0.135574,0.003616,9.969040
2019-01-28 22:37:29:3729,-0.206512,0.261734,-0.070862,0.135574,0.003616,9.969040
2019-01-28 22:37:29:3729,-0.206512,0.261734,-0.070862,-0.423172,-0.051422,10.076721
2019-01-28 22:37:29:3729,-0.206512,0.261734,-0.070862,-0.865845,-0.063385,10.142532
2019-01-28 22:37:29:3729,-0.206512,0.261734,-0.070862,-0.424362,-0.245255,9.555084
2019-01-28 22:37:29:3729,-0.206512,0.261734,-0.070862,0.159485,-0.764496,9.569443
2019-01-28 22:37:29:3729,-0.206512,0.261734,-0.070862,0.512436,-0.975052,9.188980
2019-01-28 22:37:29:3729,-0.206512,0.261734,-0.070862,0.313828,-0.726196,9.098053
2019-01-28 22:37:29:3729,-0.206512,0.261734,-0.070862,-0.484177,-0.608963,9.590973
2019-01-28 22:37:29:3729,-0.206512,0.261734,-0.070862,-0.526062,-0.937958,9.854187
2019-01-28 22:37:29:3729,-0.206512,0.261734,-0.070862,-0.547592,-1.713242,10.449997
2019-01-28 22:37:29:3729,-0.636124,-0.423401,-0.227615,-0.547592,-1.713242,10.449997
2019-01-28 22:37:29:3729,-0.636124,-0.423401,-0.227615,-0.889755,-1.690506,10.852005
2019-01-28 22:37:29:3729,-0.636124,-0.423401,-0.227615,-1.175705,-1.423706,10.226273
2019-01-28 22:37:29:3729,-0.636124,-0.423401,-0.227615,-1.115891,-0.964279,9.419891
2019-01-28 22:37:29:3729,-0.636124,-0.423401,-0.227615,-1.033340,-1.043243,9.601746
2019-01-28 22:37:29:3729,-0.636124,-0.423401,-0.227615,0.281525,-1.402176,10.723984
2019-01-28 22:37:29:3729,-0.636124,-0.423401,-0.227615,2.016327,-2.110458,10.501450
2019-01-28 22:37:29:3729,-0.636124,-0.423401,-0.227615,2.729385,-2.195404,9.614914
2019-01-28 22:37:29:3729,-0.636124,-0.423401,-0.227615,2.281937,-1.905869,8.529770
2019-01-28 22:37:29:3729,-0.636124,-0.423401,-0.227615,1.591599,-1.491913,7.718597
2019-01-28 22:37:29:3729,-0.636124,-0.423401,-0.227615,1.239853,-1.307663,7.920792
2019-01-28 22:37:29:3729,0.767441,0.855377,-0.225281,1.239853,-1.307663,7.920792
2019-01-28 22:37:29:3729,0.767441,0.855377,-0.225281,1.439651,-1.568481,8.310822
2019-01-28 22:37:29:3729,0.767441,0.855377,-0.225281,1.257797,-1.420120,7.910019
2019-01-28 22:37:29:3729,0.767441,0.855377,-0.225281,-0.356155,-0.404373,7.816696
2019-01-28 22:37:29:3729,0.767441,0.855377,-0.225281,-1.657867,-0.333771,8.501053
2019-01-28 22:37:29:3729,0.767441,0.855377,-0.225281,-2.696350,-0.038269,9.435440
2019-01-28 22:37:29:3729,0.767441,0.855377,-0.225281,-1.155365,-0.238068,9.472534
2019-01-28 22:37:29:3729,0.767441,0.855377,-0.225281,-0.405228,-0.178253,9.162659
2019-01-28 22:37:29:3729,0.767441,0.855377,-0.225281,-1.812195,-0.457016,10.249008
2019-01-28 22:37:29:3729,0.767441,0.855377,-0.225281,-2.527649,-0.555115,12.353500
2019-01-28 22:37:30:3730,-0.053070,-0.313690,0.135910,-2.527649,-0.555115,12.353500
2019-01-28 22:37:30:3730,-0.053070,-0.313690,0.135910,-1.803833,-1.076752,14.057190
2019-01-28 22:37:30:3730,-0.053070,-0.313690,0.135910,-0.384872,-1.337570,13.493668
2019-01-28 22:37:30:3730,-0.053070,-0.313690,0.135910,0.146332,-0.524002,10.361465
2019-01-28 22:37:30:3730,-0.053070,-0.313690,0.135910,-0.570328,0.208206,7.247208
2019-01-28 22:37:30:3730,-0.053070,-0.313690,0.135910,-0.273605,0.363739,6.797348
2019-01-28 22:37:30:3730,-0.053070,-0.313690,0.135910,-0.254471,-0.260803,11.624878
2019-01-28 22:37:30:3730,-0.053070,-0.313690,0.135910,0.200180,-0.836273,11.933548
2019-01-28 22:37:30:3730,-0.053070,-0.313690,0.135910,1.102264,-1.105469,9.646011
2019-01-28 22:37:30:3730,-0.053070,-0.313690,0.135910,1.896683,-0.336166,9.835052
2019-01-28 22:37:30:3730,-0.053070,-0.313690,0.135910,2.222107,-0.738174,9.412720
2019-01-28 22:37:30:3730,-0.053070,-0.313690,0.135910,2.149124,-0.855408,9.983398
2019-01-28 22:37:30:3730,-0.053070,-0.313690,0.135910,1.357101,-0.524002,11.091278
2019-01-28 22:37:30:3730,-0.053070,-0.313690,0.135910,-1.569321,0.061035,9.861374
2019-01-28 22:37:30:3730,-0.053070,-0.313690,0.135910,-2.272812,0.509689,9.908020
2019-01-28 22:37:30:3730,-0.053070,-0.313690,0.135910,-1.806213,0.800430,9.584991
2019-01-28 22:37:30:3730,-0.053070,-0.313690,0.135910,-1.748795,0.908112,9.127960
2019-01-28 22:37:30:3730,-0.053070,-0.313690,0.135910,-2.032333,1.174911,8.870743
2019-01-28 22:37:30:3730,-0.053070,-0.313690,0.135910,3.140961,-0.263184,9.965454
2019-01-28 22:37:30:3730,-0.053070,-0.313690,0.135910,0.715836,0.506104,10.604340
2019-01-28 22:37:30:3730,0.230423,-0.157791,-0.190781,0.715836,0.506104,10.604340
2019-01-28 22:37:30:3730,0.230423,-0.157791,-0.190781,2.280731,0.160355,10.408127
2019-01-28 22:37:30:3730,0.230423,-0.157791,-0.190781,0.624893,-0.480942,8.808533
2019-01-28 22:37:30:3730,0.230423,-0.157791,-0.190781,-1.152969,-0.714249,7.802353
2019-01-28 22:37:30:3730,0.230423,-0.157791,-0.190781,-2.027557,-0.543152,7.588181
2019-01-28 22:37:30:3730,0.230423,-0.157791,-0.190781,0.185806,-0.619720,9.812317
2019-01-28 22:37:30:3730,0.230423,-0.157791,-0.190781,0.282730,0.144791,10.120987
2019-01-28 22:37:30:3730,0.230423,-0.157791,-0.190781,0.257599,1.338806,9.870941
2019-01-28 22:37:30:3730,0.230423,-0.157791,-0.190781,0.121216,1.125854,9.872131
2019-01-28 22:37:30:3730,0.230423,-0.157791,-0.190781,0.192993,-0.130386,8.929367
2019-01-28 22:37:30:3730,0.043152,-0.138306,-0.433044,0.192993,-0.130386,8.929367
2019-01-28 22:37:30:3730,0.043152,-0.138306,-0.433044,0.353317,-1.415344,9.607727
2019-01-28 22:37:30:3730,0.043152,-0.138306,-0.433044,1.199173,-2.395203,11.565063
2019-01-28 22:37:30:3730,0.043152,-0.138306,-0.433044,0.860596,-1.860397,13.246017
2019-01-28 22:37:30:3730,0.043152,-0.138306,-0.433044,-0.912491,-0.762100,12.853592
2019-01-28 22:37:30:3730,0.043152,-0.138306,-0.433044,-4.062653,0.349380,10.484695
2019-01-28 22:37:30:3730,0.043152,-0.138306,-0.433044,0.573456,3.846481,9.028656
2019-01-28 22:37:30:3730,0.043152,-0.138306,-0.433044,0.517227,0.027542,6.597549
2019-01-28 22:37:30:3730,0.043152,-0.138306,-0.433044,-0.752182,0.805206,6.001755
2019-01-28 22:37:30:3730,0.043152,-0.138306,-0.433044,-0.882584,0.475006,7.265152
2019-01-28 22:37:30:3730,0.043152,-0.138306,-0.433044,-0.698349,0.403214,8.339539
2019-01-28 22:37:30:3730,0.106247,0.074203,-0.165848,-0.698349,0.403214,8.339539
2019-01-28 22:37:30:3730,0.106247,0.074203,-0.165848,-1.638718,0.307510,9.488083
2019-01-28 22:37:30:3730,0.106247,0.074203,-0.165848,-1.559753,1.305313,10.629471
2019-01-28 22:37:30:3730,0.106247,0.074203,-0.165848,0.216919,0.519272,11.383209
2019-01-28 22:37:30:3730,0.106247,0.074203,-0.165848,1.641846,-0.105270,11.823486
2019-01-28 22:37:30:3730,0.106247,0.074203,-0.165848,0.380829,-0.035873,10.938141
2019-01-28 22:37:30:3730,0.106247,0.074203,-0.165848,-0.424362,-0.349335,10.476318
2019-01-28 22:37:30:3730,0.106247,0.074203,-0.165848,-0.273621,0.033524,8.851593
2019-01-28 22:37:30:3730,0.106247,0.074203,-0.165848,0.090103,0.825546,8.630264
2019-01-28 22:37:30:3730,0.106247,0.074203,-0.165848,1.014923,-0.050232,9.528763
2019-01-28 22:37:31:3731,0.213257,0.108963,0.155701,1.014923,-0.050232,9.528763
2019-01-28 22:37:31:3731,0.213257,0.108963,0.155701,0.809143,0.648483,9.857773
2019-01-28 22:37:31:3731,0.213257,0.108963,0.155701,1.133377,1.225159,10.237030
2019-01-28 22:37:31:3731,0.213257,0.108963,0.155701,1.096283,1.835327,10.030060
2019-01-28 22:37:31:3731,0.213257,0.108963,0.155701,0.847427,1.820969,9.819489
2019-01-28 22:37:31:3731,0.213257,0.108963,0.155701,0.757706,1.642700,9.314606
2019-01-28 22:37:31:3731,0.213257,0.108963,0.155701,0.393997,1.678589,8.984390
2019-01-28 22:37:31:3731,0.213257,0.108963,0.155701,0.030273,1.582886,9.559875
2019-01-28 22:37:31:3731,0.213257,0.108963,0.155701,-0.035538,1.398636,9.881714
2019-01-28 22:37:31:3731,0.213257,0.108963,0.155701,-0.031937,1.671417,9.739334
2019-01-28 22:37:31:3731,0.213257,0.108963,0.155701,-0.153976,1.458450,9.653183
2019-01-28 22:37:31:3731,0.241669,-0.090363,-0.355347,-0.153976,1.458450,9.653183
2019-01-28 22:37:31:3731,0.241669,-0.090363,-0.355347,-0.583481,1.712097,9.507233
2019-01-28 22:37:31:3731,0.241669,-0.090363,-0.355347,0.167877,1.221558,9.043015
2019-01-28 22:37:31:3731,0.241669,-0.090363,-0.355347,0.041046,0.939209,9.203339
2019-01-28 22:37:31:3731,0.241669,-0.090363,-0.355347,-0.206619,0.157959,9.724976
2019-01-28 22:37:31:3731,0.241669,-0.090363,-0.355347,-0.389664,0.259644,10.245407
2019-01-28 22:37:31:3731,0.241669,-0.090363,-0.355347,-0.035522,0.553955,9.842224
2019-01-28 22:37:31:3731,0.241669,-0.090363,-0.355347,0.378433,0.654465,9.607727
2019-01-28 22:37:31:3731,0.241669,-0.090363,-0.355347,0.225296,0.637711,9.362457
2019-01-28 22:37:31:3731,0.241669,-0.090363,-0.355347,0.015930,0.660446,9.224869
2019-01-28 22:37:31:3731,-0.058441,-0.325043,-0.032806,0.015930,0.660446,9.224869
2019-01-28 22:37:31:3731,-0.058441,-0.325043,-0.032806,0.114029,0.952362,9.592178
2019-01-28 22:37:31:3731,-0.058441,-0.325043,-0.032806,1.023300,1.184479,9.955887
2019-01-28 22:37:31:3731,-0.058441,-0.325043,-0.032806,0.958694,1.472809,8.901855
2019-01-28 22:37:31:3731,-0.058441,-0.325043,-0.032806,0.499268,1.513489,8.729568
2019-01-28 22:37:31:3731,-0.058441,-0.325043,-0.032806,0.081726,1.134232,9.428268
2019-01-28 22:37:31:3731,-0.058441,-0.325043,-0.032806,0.069763,0.628143,9.404343
2019-01-28 22:37:31:3731,-0.058441,-0.325043,-0.032806,0.383224,0.086166,9.899658
2019-01-28 22:37:31:3731,-0.058441,-0.325043,-0.032806,0.663177,-0.039459,10.265747
2019-01-28 22:37:31:3731,-0.058441,-0.325043,-0.032806,0.664383,-0.029892,10.728760
2019-01-28 22:37:31:3731,-0.058441,-0.325043,-0.032806,0.671555,0.209396,10.392578
2019-01-28 22:37:31:3731,-0.396606,0.118301,0.052414,0.671555,0.209396,10.392578
2019-01-28 22:37:31:3731,-0.396606,0.118301,0.052414,0.641647,0.356552,10.043228
2019-01-28 22:37:31:3731,-0.396606,0.118301,0.052414,0.341354,0.595840,9.747711
2019-01-28 22:37:31:3731,-0.396606,0.118301,0.052414,0.512436,0.650879,9.733353
2019-01-28 22:37:31:3731,-0.396606,0.118301,0.052414,0.480133,0.848282,9.769241
2019-01-28 22:37:31:3731,-0.396606,0.118301,0.052414,0.693085,0.893753,10.049194
2019-01-28 22:37:31:3731,-0.396606,0.118301,0.052414,0.736160,0.857849,9.856583
2019-01-28 22:37:31:3731,-0.396606,0.118301,0.052414,0.451416,0.605408,9.931961
2019-01-28 22:37:31:3731,-0.396606,0.118301,0.052414,0.264771,0.565933,9.742920
2019-01-28 22:37:31:3731,-0.396606,0.118301,0.052414,-0.152771,-0.062195,9.474930
2019-01-28 22:37:31:3731,-0.187454,0.121796,0.008057,-0.152771,-0.062195,9.474930
2019-01-28 22:37:31:3731,-0.187454,0.121796,0.008057,-0.807220,-0.150726,9.405533
2019-01-28 22:37:31:3731,-0.187454,0.121796,0.008057,-0.222168,0.186676,8.964050
2019-01-28 22:37:31:3731,-0.187454,0.121796,0.008057,-0.847885,-0.005966,8.819290
2019-01-28 22:37:31:3731,-0.187454,0.121796,0.008057,-0.817978,-0.099289,9.332550
2019-01-28 22:37:31:3731,-0.187454,0.121796,0.008057,-0.541611,-0.206955,9.796768
2019-01-28 22:37:31:3731,-0.187454,0.121796,0.008057,0.450226,-1.107864,9.739334
2019-01-28 22:37:31:3731,-0.187454,0.121796,0.008057,0.724197,-0.864990,10.211914
2019-01-28 22:37:31:3731,-0.187454,0.121796,0.008057,0.469360,-0.853027,10.325577
2019-01-28 22:37:31:3731,-0.187454,0.121796,0.008057,-0.016388,-0.423508,10.514603
2019-01-28 22:37:31:3731,-0.002914,-0.064514,0.095535,-0.016388,-0.423508,10.514603
2019-01-28 22:37:31:3731,-0.002914,-0.064514,0.095535,-0.236526,-0.021515,11.319794
2019-01-28 22:37:31:3731,-0.002914,-0.064514,0.095535,-0.279587,0.197433,11.636841
2019-01-28 22:37:31:3731,-0.002914,-0.064514,0.095535,0.232483,-0.181839,10.489487
2019-01-28 22:37:31:3731,-0.002914,-0.064514,0.095535,0.434677,-0.442657,10.205933
2019-01-28 22:37:31:3731,-0.002914,-0.064514,0.095535,0.569855,-0.582642,9.758484
2019-01-28 22:37:31:3731,-0.002914,-0.064514,0.095535,0.522003,-0.521622,9.279907
2019-01-28 22:37:31:3731,-0.002914,-0.064514,0.095535,0.250427,-0.324203,8.911423
2019-01-28 22:37:31:3731,-0.002914,-0.064514,0.095535,0.303070,-0.113632,8.833649
2019-01-28 22:37:31:3731,-0.002914,-0.064514,0.095535,0.311432,-0.046646,9.086090
2019-01-28 22:37:31:3731,-0.002914,-0.064514,0.095535,0.249222,0.041901,9.583801
2019-01-28 22:37:32:3732,0.092682,-0.038925,-0.077881,0.249222,0.041901,9.583801
2019-01-28 22:37:32:3732,0.092682,-0.038925,-0.077881,0.273148,0.070618,9.833847
2019-01-28 22:37:32:3732,0.092682,-0.038925,-0.077881,0.438263,-0.028702,10.154495
2019-01-28 22:37:32:3732,0.092682,-0.038925,-0.077881,0.701462,0.039505,10.173630
2019-01-28 22:37:32:3732,0.092682,-0.038925,-0.077881,0.634460,0.113678,9.844620
2019-01-28 22:37:32:3732,0.092682,-0.038925,-0.077881,0.555511,0.082581,9.808731
2019-01-28 22:37:32:3732,0.092682,-0.038925,-0.077881,0.780441,-0.014343,9.892471
2019-01-28 22:37:32:3732,0.092682,-0.038925,-0.077881,0.855804,-0.057404,10.115005
2019-01-28 22:37:32:3732,0.092682,-0.038925,-0.077881,0.612946,0.082581,9.805145
2019-01-28 22:37:32:3732,0.092682,-0.038925,-0.077881,0.153519,0.305115,9.533554
2019-01-28 22:37:32:3732,0.100922,0.063629,-0.141174,0.153519,0.305115,9.533554
2019-01-28 22:37:32:3732,0.100922,0.063629,-0.141174,-0.162338,0.453461,9.558685
2019-01-28 22:37:32:3732,0.100922,0.063629,-0.141174,-0.252075,0.408005,9.459381
2019-01-28 22:37:32:3732,0.100922,0.063629,-0.141174,-0.114487,0.345795,9.580215
2019-01-28 22:37:32:3732,0.100922,0.063629,-0.141174,-0.080994,0.228546,9.716599
2019-01-28 22:37:32:3732,0.100922,0.063629,-0.141174,0.018326,0.125656,10.113800
2019-01-28 22:37:32:3732,0.100922,0.063629,-0.141174,0.086517,0.236923,10.063553
2019-01-28 22:37:32:3732,0.100922,0.063629,-0.141174,0.000366,0.378098,9.951096
2019-01-28 22:37:32:3732,0.100922,0.063629,-0.141174,0.044647,0.470215,9.881714
2019-01-28 22:37:32:3732,0.100922,0.063629,-0.141174,0.120010,0.528839,9.768051
2019-01-28 22:37:32:3732,0.100922,0.063629,-0.141174,0.189407,0.630539,9.544312
2019-01-28 22:37:32:3732,0.030319,0.028137,0.069870,0.189407,0.630539,9.544312
2019-01-28 22:37:32:3732,0.030319,0.028137,0.069870,0.190598,0.599426,9.447403
2019-01-28 22:37:32:3732,0.030319,0.028137,0.069870,0.269562,0.532425,9.186584
2019-01-28 22:37:32:3732,0.030319,0.028137,0.069870,0.282730,0.397232,9.077713
2019-01-28 22:37:32:3732,0.030319,0.028137,0.069870,0.185822,0.390060,9.279907
2019-01-28 22:37:32:3732,0.030319,0.028137,0.069870,0.142746,0.469009,9.406738
2019-01-28 22:37:32:3732,0.030319,0.028137,0.069870,-0.000824,0.431931,9.669937
2019-01-28 22:37:32:3732,0.030319,0.028137,0.069870,0.098480,0.256058,10.259766
2019-01-28 22:37:32:3732,0.030319,0.028137,0.069870,0.368866,0.180679,10.526581
2019-01-28 22:37:32:3732,0.030319,0.028137,0.069870,0.658401,0.112488,10.449997
2019-01-28 22:37:32:3732,0.065750,-0.008438,-0.021927,0.658401,0.112488,10.449997
2019-01-28 22:37:32:3732,0.065750,-0.008438,-0.021927,0.918015,0.112488,10.134155
2019-01-28 22:37:32:3732,0.065750,-0.008438,-0.021927,0.758896,0.233322,9.940323
2019-01-28 22:37:32:3732,0.065750,-0.008438,-0.021927,0.591400,0.406799,9.916397
2019-01-28 22:37:32:3732,0.065750,-0.008438,-0.021927,0.265976,0.525253,9.593369
2019-01-28 22:37:32:3732,0.065750,-0.008438,-0.021927,0.058990,0.662842,9.279907
2019-01-28 22:37:32:3732,0.065750,-0.008438,-0.021927,-0.118073,0.671204,9.277527
2019-01-28 22:37:32:3732,0.065750,-0.008438,-0.021927,-0.027161,0.551575,9.205734
2019-01-28 22:37:32:3732,0.065750,-0.008438,-0.021927,-0.103714,0.484573,9.325378
2019-01-28 22:37:32:3732,0.065750,-0.008438,-0.021927,-0.167130,0.356552,9.648407
2019-01-28 22:37:32:3732,0.065750,-0.008438,-0.021927,-0.090561,0.329041,9.903244
2019-01-28 22:37:32:3732,-0.024231,-0.035934,0.030426,-0.090561,0.329041,9.903244
2019-01-28 22:37:32:3732,-0.024231,-0.035934,0.030426,-0.012787,0.294342,10.107834
2019-01-28 22:37:32:3732,-0.024231,-0.035934,0.030426,0.069763,0.356552,10.138931
2019-01-28 22:37:32:3732,-0.024231,-0.035934,0.030426,0.093689,0.363739,9.998947
2019-01-28 22:37:32:3732,-0.024231,-0.035934,0.030426,0.352112,0.391251,9.949905
2019-01-28 22:37:32:3732,-0.024231,-0.035934,0.030426,0.450226,0.473801,9.876923
2019-01-28 22:37:32:3732,-0.024231,-0.035934,0.030426,0.446625,0.619766,9.692673
2019-01-28 22:37:32:3732,-0.024231,-0.035934,0.030426,0.288712,0.664032,9.666351
2019-01-28 22:37:32:3732,-0.024231,-0.035934,0.030426,0.202560,0.606613,9.740524
2019-01-28 22:37:32:3732,-0.024231,-0.035934,0.030426,0.280334,0.486969,9.703445
2019-01-28 22:37:33:3733,-0.000473,-0.012527,-0.002380,0.280334,0.486969,9.703445
2019-01-28 22:37:33:3733,-0.000473,-0.012527,-0.002380,0.368866,0.398438,9.686691
2019-01-28 22:37:33:3733,-0.000473,-0.012527,-0.002380,0.395187,0.408005,9.643616
2019-01-28 22:37:33:3733,-0.000473,-0.012527,-0.002380,0.335373,0.403214,9.510818
2019-01-28 22:37:33:3733,-0.000473,-0.012527,-0.002380,0.332977,0.424744,9.441422
2019-01-28 22:37:33:3733,-0.000473,-0.012527,-0.002380,0.307846,0.447479,9.422287
2019-01-28 22:37:33:3733,-0.000473,-0.012527,-0.002380,0.274353,0.458252,9.541931
2019-01-28 22:37:33:3733,-0.000473,-0.012527,-0.002380,0.365280,0.424759,9.677124
2019-01-28 22:37:33:3733,-0.000473,-0.012527,-0.002380,0.336563,0.410400,9.733353
2019-01-28 22:37:33:3733,-0.000473,-0.012527,-0.002380,0.169067,0.436722,9.811127
2019-01-28 22:37:33:3733,-0.047867,-0.000992,0.011429,0.169067,0.436722,9.811127
2019-01-28 22:37:33:3733,-0.047867,-0.000992,0.011429,0.146332,0.461838,9.880508
2019-01-28 22:37:33:3733,-0.047867,-0.000992,0.011429,0.122406,0.402023,9.922379
2019-01-28 22:37:33:3733,-0.047867,-0.000992,0.011429,0.234863,0.367325,9.855377
2019-01-28 22:37:33:3733,-0.047867,-0.000992,0.011429,0.306656,0.338608,9.618500
2019-01-28 22:37:33:3733,-0.047867,-0.000992,0.011429,0.316223,0.333817,9.576614
2019-01-28 22:37:33:3733,-0.047867,-0.000992,0.011429,0.286316,0.336212,9.663956
2019-01-28 22:37:33:3733,-0.047867,-0.000992,0.011429,0.182236,0.323059,9.747711
2019-01-28 22:37:33:3733,-0.047867,-0.000992,0.011429,0.195389,0.336227,9.882904
2019-01-28 22:37:33:3733,-0.047867,-0.000992,0.011429,0.169067,0.427139,9.808716
2019-01-28 22:37:33:3733,-0.047867,-0.000992,0.011429,0.111633,0.452271,9.703445
2019-01-28 22:37:33:3733,-0.047867,-0.000992,0.011429,0.204956,0.419968,9.813507
2019-01-28 22:37:33:3733,-0.047867,-0.000992,0.011429,0.305466,0.436722,9.876923
2019-01-28 22:37:33:3733,-0.047867,-0.000992,0.011429,0.317429,0.421158,9.835052
2019-01-28 22:37:33:3733,-0.047867,-0.000992,0.011429,0.353317,0.416382,9.829071
2019-01-28 22:37:33:3733,-0.047867,-0.000992,0.011429,0.388000,0.372101,9.722580
2019-01-28 22:37:33:3733,-0.047867,-0.000992,0.011429,0.493286,0.276398,9.766846
2019-01-28 22:37:33:3733,-0.047867,-0.000992,0.011429,0.464584,0.234528,9.910416
2019-01-28 22:37:33:3733,-0.047867,-0.000992,0.011429,0.456207,0.177094,9.831451
2019-01-28 22:37:33:3733,-0.047867,-0.000992,0.011429,0.502869,0.128036,9.727371
2019-01-28 22:37:33:3733,-0.006699,-0.006851,0.010635,0.502869,0.128036,9.727371
2019-01-28 22:37:33:3733,-0.006699,-0.006851,0.010635,0.532776,0.193848,9.643616
2019-01-28 22:37:33:3733,-0.006699,-0.006851,0.010635,0.388000,0.295532,9.611313
2019-01-28 22:37:33:3733,-0.006699,-0.006851,0.010635,0.274353,0.372101,9.625671
2019-01-28 22:37:33:3733,-0.006699,-0.006851,0.010635,0.220520,0.329041,9.801544
2019-01-28 22:37:33:3733,-0.006699,-0.006851,0.010635,0.303070,0.357758,10.040833
2019-01-28 22:37:33:3733,-0.006699,-0.006851,0.010635,0.291092,0.482178,10.064758
2019-01-28 22:37:33:3733,-0.006699,-0.006851,0.010635,0.275543,0.558746,9.941528
2019-01-28 22:37:33:3733,-0.006699,-0.006851,0.010635,0.279144,0.603012,9.769241
2019-01-28 22:37:33:3733,-0.006699,-0.006851,0.010635,0.346130,0.774109,9.649597
2019-01-28 22:37:33:3733,-0.006699,-0.006851,0.010635,0.263580,0.458252,9.485687
2019-01-28 22:37:33:3733,0.087555,-0.004837,-0.025040,0.263580,0.458252,9.485687
2019-01-28 22:37:33:3733,0.087555,-0.004837,-0.025040,0.472961,0.553970,9.477325
2019-01-28 22:37:33:3733,0.087555,-0.004837,-0.025040,0.257599,0.496536,9.519196
2019-01-28 22:37:33:3733,0.087555,-0.004837,-0.025040,0.261185,0.451080,9.576630
2019-01-28 22:37:33:3733,0.087555,-0.004837,-0.025040,0.322205,0.382874,9.673523
2019-01-28 22:37:33:3733,0.087555,-0.004837,-0.025040,0.288712,0.362549,9.707031
2019-01-28 22:37:33:3733,0.087555,-0.004837,-0.025040,0.154709,0.378098,9.776413
2019-01-28 22:37:33:3733,0.087555,-0.004837,-0.025040,0.063782,0.424759,9.744110
2019-01-28 22:37:33:3733,0.087555,-0.004837,-0.025040,-0.040314,0.459442,9.717804
2019-01-28 22:37:33:3733,0.087555,-0.004837,-0.025040,-0.037918,0.469009,9.656784
2019-01-28 22:37:33:3733,-0.010178,0.015381,-0.008789,-0.037918,0.469009,9.656784
2019-01-28 22:37:33:3733,-0.010178,0.015381,-0.008789,0.043442,0.547989,9.622086
2019-01-28 22:37:33:3733,-0.010178,0.015381,-0.008789,0.030289,0.556366,9.485687
2019-01-28 22:37:33:3733,-0.010178,0.015381,-0.008789,0.038666,0.504913,9.586197
2019-01-28 22:37:33:3733,-0.010178,0.015381,-0.008789,0.081726,0.410385,9.764465
2019-01-28 22:37:33:3733,-0.010178,0.015381,-0.008789,0.222900,0.374496,9.821884
2019-01-28 22:37:33:3733,-0.010178,0.015381,-0.008789,0.236069,0.413986,9.835037
2019-01-28 22:37:33:3733,-0.010178,0.015381,-0.008789,0.281525,0.375702,9.982208
2019-01-28 22:37:33:3733,-0.010178,0.015381,-0.008789,0.130783,0.458252,10.147308
2019-01-28 22:37:33:3733,-0.010178,0.015381,-0.008789,-0.140808,0.606613,10.412918
2019-01-28 22:37:33:3733,-0.010178,0.015381,-0.008789,-0.228149,0.642502,10.336334
2019-01-28 22:37:34:3734,0.005707,0.026138,0.047089,-0.228149,0.642502,10.336334
2019-01-28 22:37:34:3734,0.005707,0.026138,0.047089,-0.031937,0.575500,9.764465
2019-01-28 22:37:34:3734,0.005707,0.026138,0.047089,0.289902,0.437912,9.168640
2019-01-28 22:37:34:3734,0.005707,0.026138,0.047089,0.493286,0.205811,8.904236
2019-01-28 22:37:34:3734,0.005707,0.026138,0.047089,0.635666,0.059845,9.125565
2019-01-28 22:37:34:3734,0.005707,0.026138,0.047089,0.652420,0.061035,9.540726
2019-01-28 22:37:34:3734,0.005707,0.026138,0.047089,0.653610,0.189056,9.681900
2019-01-28 22:37:34:3734,0.005707,0.026138,0.047089,0.573456,0.311096,9.888885
2019-01-28 22:37:34:3734,0.005707,0.026138,0.047089,0.516022,0.436722,10.172440
2019-01-28 22:37:34:3734,0.005707,0.026138,0.047089,0.492096,0.502518,10.228668
2019-01-28 22:37:34:3734,-0.044815,-0.031952,0.015640,0.492096,0.502518,10.228668
2019-01-28 22:37:34:3734,-0.044815,-0.031952,0.015640,0.453812,0.503723,10.143723
2019-01-28 22:37:34:3734,-0.044815,-0.031952,0.015640,0.522003,0.452271,9.979813
2019-01-28 22:37:34:3734,-0.044815,-0.031952,0.015640,0.504059,0.299133,9.774033
2019-01-28 22:37:34:3734,-0.044815,-0.031952,0.015640,0.362885,0.275208,9.817093
2019-01-28 22:37:34:3734,-0.044815,-0.031952,0.015640,0.151123,0.301529,9.764450
2019-01-28 22:37:34:3734,-0.044815,-0.031952,0.015640,0.049423,0.297928,9.602936
2019-01-28 22:37:34:3734,-0.044815,-0.031952,0.015640,0.037460,0.341003,9.507233
2019-01-28 22:37:34:3734,-0.044815,-0.031952,0.015640,-0.028351,0.464233,9.348114
2019-01-28 22:37:34:3734,-0.044815,-0.031952,0.015640,-0.168335,0.603012,9.340927
2019-01-28 22:37:34:3734,-0.002121,0.024841,-0.074158,-0.168335,0.603012,9.340927
2019-01-28 22:37:34:3734,-0.002121,0.024841,-0.074158,-0.216187,0.609009,9.473740
2019-01-28 22:37:34:3734,-0.002121,0.024841,-0.074158,-0.149185,0.544403,9.769241
2019-01-28 22:37:34:3734,-0.002121,0.024841,-0.074158,-0.086975,0.385269,9.915207
2019-01-28 22:37:34:3734,-0.002121,0.024841,-0.074158,0.006363,0.325455,9.937943
2019-01-28 22:37:34:3734,-0.002121,0.024841,-0.074158,0.073349,0.277588,9.860168
2019-01-28 22:37:34:3734,-0.002121,0.024841,-0.074158,0.081726,0.251266,9.797958
2019-01-28 22:37:34:3734,-0.002121,0.024841,-0.074158,0.031479,0.235718,9.662766
2019-01-28 22:37:34:3734,-0.002121,0.024841,-0.074158,0.041046,0.247681,9.551498
2019-01-28 22:37:34:3734,-0.002121,0.024841,-0.074158,0.025497,0.193848,9.583801
2019-01-28 22:37:34:3734,-0.002121,0.024841,-0.074158,0.067368,0.159149,9.610123
2019-01-28 22:37:34:3734,-0.002121,0.024841,-0.074158,0.093689,0.112488,9.531158
2019-01-28 22:37:34:3734,-0.002121,0.024841,-0.074158,0.274338,0.019165,9.681900
2019-01-28 22:37:34:3734,-0.002121,0.024841,-0.074158,0.455002,-0.074158,9.832657
2019-01-28 22:37:34:3734,-0.002121,0.024841,-0.074158,0.550720,-0.114838,9.669937
2019-01-28 22:37:34:3734,-0.002121,0.024841,-0.074158,0.316223,0.050278,9.916397
2019-01-28 22:37:34:3734,-0.002121,0.024841,-0.074158,0.014725,0.624542,10.136536
2019-01-28 22:37:34:3734,-0.002121,0.024841,-0.074158,-0.016388,0.737015,10.713211
2019-01-28 22:37:34:3734,-0.002121,0.024841,-0.074158,0.239655,0.454666,11.158279
2019-01-28 22:37:34:3734,-0.118973,-0.046066,0.007263,0.239655,0.454666,11.158279
2019-01-28 22:37:34:3734,-0.118973,-0.046066,0.007263,0.421509,-0.009552,11.294662
2019-01-28 22:37:34:3734,-0.118973,-0.046066,0.007263,0.888107,-0.330185,10.907028
2019-01-28 22:37:34:3734,-0.118973,-0.046066,0.007263,0.923996,-0.421112,10.091080
2019-01-28 22:37:34:3734,-0.118973,-0.046066,0.007263,0.794785,-0.251221,9.246414
2019-01-28 22:37:34:3734,-0.118973,-0.046066,0.007263,0.440643,-0.023911,8.557281
2019-01-28 22:37:34:3734,-0.118973,-0.046066,0.007263,0.368866,0.256058,8.416092
2019-01-28 22:37:34:3734,-0.118973,-0.046066,0.007263,-0.151581,0.636520,9.261963
2019-01-28 22:37:35:3735,-0.118973,-0.046066,0.007263,0.007553,0.582672,9.735748
2019-01-28 22:37:35:3735,-0.118973,-0.046066,0.007263,0.026688,0.563538,10.068344
2019-01-28 22:37:35:3735,-0.118973,-0.046066,0.007263,0.135574,0.509689,10.257370
2019-01-28 22:37:35:3735,-0.118973,-0.046066,0.007263,0.287521,0.458252,10.333954
2019-01-28 22:37:35:3735,-0.118973,-0.046066,0.007263,0.264771,0.467819,10.235840
2019-01-28 22:37:35:3735,-0.118973,-0.046066,0.007263,0.165482,0.485764,10.256180
2019-01-28 22:37:35:3735,0.040878,0.026001,-0.013138,0.165482,0.485764,10.256180
2019-01-28 22:37:35:3735,0.040878,0.026001,-0.013138,0.146332,0.559952,10.073135
2019-01-28 22:37:35:3735,0.040878,0.026001,-0.013138,0.103256,0.609009,9.727371
2019-01-28 22:37:35:3735,0.040878,0.026001,-0.013138,0.053009,0.601822,9.630463
2019-01-28 22:37:35:3735,0.040878,0.026001,-0.013138,0.152313,0.546783,9.672333
2019-01-28 22:37:35:3735,0.040878,0.026001,-0.013138,0.198975,0.603012,9.474930
2019-01-28 22:37:35:3735,0.040878,0.026001,-0.013138,0.135574,0.652069,9.462967
2019-01-28 22:37:35:3735,0.040878,0.026001,-0.013138,0.086517,0.763336,9.550308
2019-01-28 22:37:35:3735,0.040878,0.026001,-0.013138,0.076935,0.806412,9.471344
2019-01-28 22:37:35:3735,0.040878,0.026001,-0.013138,0.108047,0.802826,9.574234
2019-01-28 22:37:35:3735,0.040878,0.026001,-0.013138,0.234863,0.721466,9.808731
2019-01-28 22:37:35:3735,0.008026,-0.007401,-0.044769,0.234863,0.721466,9.808731
2019-01-28 22:37:35:3735,0.008026,-0.007401,-0.044769,0.288712,0.514481,10.115005
2019-01-28 22:37:35:3735,0.008026,-0.007401,-0.044769,0.379639,0.451065,10.065948
2019-01-28 22:37:35:3735,0.008026,-0.007401,-0.044769,0.271957,0.461838,9.925980
2019-01-28 22:37:35:3735,0.008026,-0.007401,-0.044769,0.114029,0.521652,9.812317
2019-01-28 22:37:35:3735,0.008026,-0.007401,-0.044769,0.112839,0.561142,9.693863
2019-01-28 22:37:35:3735,0.008026,-0.007401,-0.044769,0.080536,0.518066,9.708237
2019-01-28 22:37:35:3735,0.008026,-0.007401,-0.044769,0.159500,0.570709,9.686691
2019-01-28 22:37:35:3735,0.008026,-0.007401,-0.044769,0.169067,0.567123,9.729752
2019-01-28 22:37:35:3735,0.008026,-0.007401,-0.044769,0.227692,0.592255,9.762054
2019-01-28 22:37:35:3735,0.089493,-0.025604,-0.009232,0.227692,0.592255,9.762054
2019-01-28 22:37:35:3735,0.089493,-0.025604,-0.009232,0.221710,0.697540,9.630463
2019-01-28 22:37:35:3735,0.089493,-0.025604,-0.009232,0.057800,0.837509,9.655594
2019-01-28 22:37:35:3735,0.089493,-0.025604,-0.009232,-0.097748,0.806412,9.691483
2019-01-28 22:37:35:3735,0.089493,-0.025604,-0.009232,0.045837,0.671219,9.582611
2019-01-28 22:37:35:3735,0.089493,-0.025604,-0.009232,0.240845,0.557556,9.410324
2019-01-28 22:37:35:3735,0.089493,-0.025604,-0.009232,0.265976,0.498932,9.378021
2019-01-28 22:37:35:3735,0.089493,-0.025604,-0.009232,0.293488,0.552765,9.646011
2019-01-28 22:37:35:3735,0.089493,-0.025604,-0.009232,0.280334,0.636520,9.776428
2019-01-28 22:37:35:3735,0.089493,-0.025604,-0.009232,0.238449,0.751373,9.851791
2019-01-28 22:37:35:3735,0.089493,-0.025604,-0.009232,0.175049,0.872208,9.912811
2019-01-28 22:37:35:3735,0.044235,-0.031281,0.052475,0.175049,0.872208,9.912811
2019-01-28 22:37:35:3735,0.044235,-0.031281,0.052475,0.125992,0.988266,9.978607
2019-01-28 22:37:35:3735,0.044235,-0.031281,0.052475,0.129593,0.952362,9.925980
2019-01-28 22:37:35:3735,0.044235,-0.031281,0.052475,0.291092,0.861435,9.733353
2019-01-28 22:37:35:3735,0.044235,-0.031281,0.052475,0.425095,0.780090,9.625671
2019-01-28 22:37:35:3735,0.044235,-0.031281,0.052475,0.383224,0.757355,9.598160
2019-01-28 22:37:35:3735,0.044235,-0.031281,0.052475,0.254013,0.772903,9.537140
2019-01-28 22:37:35:3735,0.044235,-0.031281,0.052475,0.171463,0.775299,9.575424
2019-01-28 22:37:35:3735,0.044235,-0.031281,0.052475,0.155899,0.784882,9.581406
2019-01-28 22:37:35:3735,0.044235,-0.031281,0.052475,0.114029,0.845886,9.614899
2019-01-28 22:37:35:3735,0.013275,0.007629,0.028778,0.114029,0.845886,9.614899
2019-01-28 22:37:35:3735,0.013275,0.007629,0.028778,0.017120,0.887756,9.547913
2019-01-28 22:37:35:3735,0.013275,0.007629,0.028778,0.121216,0.885376,9.598160
2019-01-28 22:37:35:3735,0.013275,0.007629,0.028778,0.319824,0.862640,9.649597
2019-01-28 22:37:35:3735,0.013275,0.007629,0.028778,0.365280,0.882980,9.729752
2019-01-28 22:37:35:3735,0.013275,0.007629,0.028778,0.386810,0.899734,9.948700
2019-01-28 22:37:35:3735,0.013275,0.007629,0.028778,0.367676,0.955963,10.083908
2019-01-28 22:37:35:3735,0.013275,0.007629,0.028778,0.335373,0.955963,10.106628
2019-01-28 22:37:35:3735,0.013275,0.007629,0.028778,0.370071,0.897339,9.945114
2019-01-28 22:37:35:3735,0.013275,0.007629,0.028778,0.428696,0.808792,9.791977
2019-01-28 22:37:35:3735,0.013275,0.007629,0.028778,0.362885,0.795639,9.660370
2019-01-28 22:37:36:3736,0.036484,0.038956,0.013443,0.362885,0.795639,9.660370
2019-01-28 22:37:36:3736,0.036484,0.038956,0.013443,0.294693,0.759750,9.568237
2019-01-28 22:37:36:3736,0.036484,0.038956,0.013443,0.287506,0.784866,9.470139
2019-01-28 22:37:36:3736,0.036484,0.038956,0.013443,0.192993,0.833923,9.435440
2019-01-28 22:37:36:3736,0.036484,0.038956,0.013443,0.131973,0.854263,9.595764
2019-01-28 22:37:36:3736,0.036484,0.038956,0.013443,0.078140,0.874603,9.651993
2019-01-28 22:37:36:3736,0.036484,0.038956,0.013443,0.134369,0.908096,9.543121
2019-01-28 22:37:36:3736,0.036484,0.038956,0.013443,0.068573,0.963135,9.419891
2019-01-28 22:37:36:3736,0.036484,0.038956,0.013443,0.003952,0.933228,9.557480
2019-01-28 22:37:36:3736,0.036484,0.038956,0.013443,-0.023560,0.878189,9.583801
2019-01-28 22:37:36:3736,-0.113846,0.045242,-0.003113,-0.023560,0.878189,9.583801
2019-01-28 22:37:36:3736,-0.113846,0.045242,-0.003113,0.003967,0.848282,9.559875
2019-01-28 22:37:36:3736,-0.113846,0.045242,-0.003113,0.011139,0.777695,9.553879
2019-01-28 22:37:36:3736,-0.113846,0.045242,-0.003113,-0.004425,0.714294,9.669937
2019-01-28 22:37:36:3736,-0.113846,0.045242,-0.003113,-0.002029,0.604218,9.784805
2019-01-28 22:37:36:3736,-0.113846,0.045242,-0.003113,0.082916,0.549179,9.995361
2019-01-28 22:37:36:3736,-0.113846,0.045242,-0.003113,0.137955,0.526443,10.159271
2019-01-28 22:37:36:3736,-0.113846,0.045242,-0.003113,0.245636,0.551575,10.002548
2019-01-28 22:37:36:3736,-0.113846,0.045242,-0.003113,0.423904,0.555161,9.904434
2019-01-28 22:37:36:3736,-0.113846,0.045242,-0.003113,0.500473,0.544388,9.844620
2019-01-28 22:37:36:3736,-0.034607,-0.014908,0.056259,0.500473,0.544388,9.844620
2019-01-28 22:37:36:3736,-0.034607,-0.014908,0.056259,0.562683,0.583878,9.765656
2019-01-28 22:37:36:3736,-0.034607,-0.014908,0.056259,0.477737,0.588669,9.771637
2019-01-28 22:37:36:3736,-0.034607,-0.014908,0.056259,0.423904,0.579086,9.748901
2019-01-28 22:37:36:3736,-0.034607,-0.014908,0.056259,0.417923,0.594635,9.844620
2019-01-28 22:37:36:3736,-0.034607,-0.014908,0.056259,0.294693,0.592255,9.958282
2019-01-28 22:37:36:3736,-0.034607,-0.014908,0.056259,0.277939,0.626938,9.906830
2019-01-28 22:37:36:3736,-0.034607,-0.014908,0.056259,0.321014,0.623352,9.718994
2019-01-28 22:37:36:3736,-0.034607,-0.014908,0.056259,0.367676,0.614990,9.672333
2019-01-28 22:37:36:3736,-0.034607,-0.014908,0.056259,0.321014,0.668823,9.576630
2019-01-28 22:37:36:3736,-0.034607,-0.014908,0.056259,0.285126,0.695145,9.588577
2019-01-28 22:37:36:3736,0.030014,-0.016998,-0.018021,0.285126,0.695145,9.588577
2019-01-28 22:37:36:3736,0.030014,-0.016998,-0.018021,0.209747,0.745392,9.547913
2019-01-28 22:37:36:3736,0.030014,-0.016998,-0.018021,0.228882,0.787262,9.441422
2019-01-28 22:37:36:3736,0.030014,-0.016998,-0.018021,0.125992,0.734619,9.492874
2019-01-28 22:37:36:3736,0.030014,-0.016998,-0.018021,0.169067,0.641312,9.801544
2019-01-28 22:37:36:3736,0.030014,-0.016998,-0.018021,0.207352,0.545593,10.003738
2019-01-28 22:37:36:3736,0.030014,-0.016998,-0.018021,0.154709,0.555161,10.018097
2019-01-28 22:37:36:3736,0.030014,-0.016998,-0.018021,-0.052277,0.641296,9.880508
2019-01-28 22:37:36:3736,0.030014,-0.016998,-0.018021,-0.059464,0.777695,9.679520
2019-01-28 22:37:36:3736,0.030014,-0.016998,-0.018021,-0.080994,0.835129,9.454590
2019-01-28 22:37:36:3736,-0.074249,-0.044235,-0.027725,-0.080994,0.835129,9.454590
2019-01-28 22:37:36:3736,-0.074249,-0.044235,-0.027725,-0.047485,0.836319,9.395966
2019-01-28 22:37:36:3736,-0.074249,-0.044235,-0.027725,0.103256,0.740601,9.300247
2019-01-28 22:37:36:3736,-0.074249,-0.044235,-0.027725,0.225296,0.601822,9.333755
2019-01-28 22:37:36:3736,-0.074249,-0.044235,-0.027725,0.282715,0.453461,9.579010
2019-01-28 22:37:36:3736,-0.074249,-0.044235,-0.027725,0.376038,0.351776,9.808716
2019-01-28 22:37:36:3736,-0.074249,-0.044235,-0.027725,0.419113,0.357758,9.930756
2019-01-28 22:37:36:3736,-0.074249,-0.044235,-0.027725,0.353317,0.447479,9.826675
2019-01-28 22:37:36:3736,-0.074249,-0.044235,-0.027725,0.286316,0.614975,9.575424
2019-01-28 22:37:36:3736,-0.074249,-0.044235,-0.027725,0.183426,0.756149,9.294266
2019-01-28 22:37:36:3736,-0.074249,-0.044235,-0.027725,0.117630,0.781281,9.484497
2019-01-28 22:37:37:3737,-0.038223,-0.092682,0.061020,0.117630,0.781281,9.484497
2019-01-28 22:37:37:3737,-0.038223,-0.092682,0.061020,0.076935,0.672409,10.003738
2019-01-28 22:37:37:3737,-0.038223,-0.092682,0.061020,0.203766,0.386459,10.475128
2019-01-28 22:37:37:3737,-0.038223,-0.092682,0.061020,0.447830,0.113678,10.735947
2019-01-28 22:37:37:3737,-0.038223,-0.092682,0.061020,0.732574,-0.050232,10.654587
2019-01-28 22:37:37:3737,-0.038223,-0.092682,0.061020,0.883331,-0.014343,10.536133
2019-01-28 22:37:37:3737,-0.038223,-0.092682,0.061020,0.822311,0.122055,10.338730
2019-01-28 22:37:37:3737,-0.038223,-0.092682,0.061020,0.752914,0.323059,9.833847
2019-01-28 22:37:37:3737,-0.038223,-0.092682,0.061020,0.629684,0.465424,9.632858
2019-01-28 22:37:37:3737,-0.038223,-0.092682,0.061020,0.402374,0.593445,9.574234
2019-01-28 22:37:37:3737,0.127380,-0.021820,-0.026520,0.402374,0.593445,9.574234
2019-01-28 22:37:37:3737,0.127380,-0.021820,-0.026520,0.359299,0.674805,9.368439
2019-01-28 22:37:37:3737,0.127380,-0.021820,-0.026520,0.359299,0.678391,9.303833
2019-01-28 22:37:37:3737,0.127380,-0.021820,-0.026520,0.263580,0.698730,9.236832
2019-01-28 22:37:37:3737,0.127380,-0.021820,-0.026520,0.206146,0.751373,9.263153
2019-01-28 22:37:37:3737,0.127380,-0.021820,-0.026520,0.295883,0.753769,9.422287
2019-01-28 22:37:37:3737,0.127380,-0.021820,-0.026520,0.441849,0.748978,9.474930
2019-01-28 22:37:37:3737,0.127380,-0.021820,-0.026520,0.587814,0.628143,9.666351
2019-01-28 22:37:37:3737,0.127380,-0.021820,-0.026520,0.548325,0.629333,9.964264
2019-01-28 22:37:37:3737,0.127380,-0.021820,-0.026520,0.489700,0.635315,10.123383
2019-01-28 22:37:37:3737,0.127380,-0.021820,-0.026520,0.389206,0.644897,10.051590
2019-01-28 22:37:37:3737,0.010345,-0.021088,-0.012466,0.389206,0.644897,10.051590
2019-01-28 22:37:37:3737,0.010345,-0.021088,-0.012466,0.336563,0.623352,9.922394
2019-01-28 22:37:37:3737,0.010345,-0.021088,-0.012466,0.325790,0.565933,9.760864
2019-01-28 22:37:37:3737,0.010345,-0.021088,-0.012466,0.423904,0.610199,9.573029
2019-01-28 22:37:37:3737,0.010345,-0.021088,-0.012466,0.464584,0.670013,9.349304
2019-01-28 22:37:37:3737,0.010345,-0.021088,-0.012466,0.529190,0.710693,9.322983
2019-01-28 22:37:37:3737,0.010345,-0.021088,-0.012466,0.539948,0.705902,9.507233
2019-01-28 22:37:37:3737,0.010345,-0.021088,-0.012466,0.522003,0.692749,9.602936
2019-01-28 22:37:37:3737,0.010345,-0.021088,-0.012466,0.517227,0.650879,9.744110
2019-01-28 22:37:37:3737,0.010345,-0.021088,-0.012466,0.471756,0.650879,9.819489
2019-01-28 22:37:37:3737,-0.032776,-0.011002,-0.008057,0.471756,0.650879,9.819489
2019-01-28 22:37:37:3737,-0.032776,-0.011002,-0.008057,0.541153,0.601822,9.782410
2019-01-28 22:37:37:3737,-0.032776,-0.011002,-0.008057,0.518417,0.607803,9.894867
2019-01-28 22:37:37:3737,-0.032776,-0.011002,-0.008057,0.445435,0.672409,9.899658
2019-01-28 22:37:37:3737,-0.032776,-0.011002,-0.008057,0.447830,0.748978,9.727371
2019-01-28 22:37:37:3737,-0.032776,-0.011002,-0.008057,0.465775,0.818375,9.634048
2019-01-28 22:37:37:3737,-0.032776,-0.011002,-0.008057,0.439453,0.778885,9.698654
2019-01-28 22:37:37:3737,-0.032776,-0.011002,-0.008057,0.527985,0.746582,9.863754
2019-01-28 22:37:37:3737,-0.032776,-0.011002,-0.008057,0.488510,0.719070,9.837433
2019-01-28 22:37:37:3737,-0.032776,-0.011002,-0.008057,0.453812,0.660446,9.763260
2019-01-28 22:37:37:3737,-0.043716,0.016479,-0.029312,0.453812,0.660446,9.763260
2019-01-28 22:37:37:3737,-0.043716,0.016479,-0.029312,0.480133,0.580276,9.784790
2019-01-28 22:37:37:3737,-0.043716,0.016479,-0.029312,0.395187,0.539612,9.733353
2019-01-28 22:37:37:3737,-0.043716,0.016479,-0.029312,0.385620,0.589859,9.529953
2019-01-28 22:37:37:3737,-0.043716,0.016479,-0.029312,0.367676,0.583878,9.387589
2019-01-28 22:37:37:3737,-0.043716,0.016479,-0.029312,0.398773,0.549179,9.471329
2019-01-28 22:37:37:3737,-0.043716,0.016479,-0.029312,0.426300,0.469025,9.631653
2019-01-28 22:37:37:3737,-0.043716,0.016479,-0.029312,0.522003,0.423553,9.716599
2019-01-28 22:37:37:3737,-0.043716,0.016479,-0.029312,0.494492,0.431931,9.803940
2019-01-28 22:37:37:3737,-0.043716,0.016479,-0.029312,0.397583,0.465424,9.849411
2019-01-28 22:37:37:3737,-0.043716,0.016479,-0.029312,0.405960,0.488159,9.813507
2019-01-28 22:37:37:3737,-0.043716,0.016479,-0.029312,0.480133,0.563538,9.678314
2019-01-28 22:37:37:3737,-0.043716,0.016479,-0.029312,0.517227,0.626938,9.631653
2019-01-28 22:37:37:3737,-0.043716,0.016479,-0.029312,0.575851,0.598236,9.710617
2019-01-28 22:37:37:3737,-0.043716,0.016479,-0.029312,0.568665,0.597031,9.855377
2019-01-28 22:37:37:3737,-0.043716,0.016479,-0.029312,0.500473,0.543198,10.056381
2019-01-28 22:37:37:3737,-0.043716,0.016479,-0.029312,0.453812,0.515671,10.231064
2019-01-28 22:37:37:3737,-0.043716,0.016479,-0.029312,0.500473,0.490555,10.132950
2019-01-28 22:37:37:3737,-0.043716,0.016479,-0.029312,0.600967,0.488159,9.965454
2019-01-28 22:37:37:3737,-0.043716,0.016479,-0.029312,0.636856,0.489365,9.894867
2019-01-28 22:37:38:3738,-0.004807,-0.027985,0.038849,0.636856,0.489365,9.894867
2019-01-28 22:37:38:3738,-0.004807,-0.027985,0.038849,0.603363,0.528839,9.748901
2019-01-28 22:37:38:3738,-0.004807,-0.027985,0.038849,0.634476,0.577896,9.501251
2019-01-28 22:37:38:3738,-0.004807,-0.027985,0.038849,0.624908,0.592255,9.375626
2019-01-28 22:37:38:3738,-0.004807,-0.027985,0.038849,0.660797,0.591049,9.520386
2019-01-28 22:37:38:3738,-0.004807,-0.027985,0.038849,0.646423,0.653259,9.503632
2019-01-28 22:37:38:3738,-0.004807,-0.027985,0.038849,0.600967,0.637711,9.533554
2019-01-28 22:37:38:3738,-0.004807,-0.027985,0.038849,0.610535,0.659256,9.678314
2019-01-28 22:37:38:3738,-0.004807,-0.027985,0.038849,0.650024,0.626938,9.791977
2019-01-28 22:37:38:3738,-0.004807,-0.027985,0.038849,0.664383,0.571915,9.909225
2019-01-28 22:37:38:3738,-0.004807,-0.027985,0.038849,0.676346,0.567123,9.977417
2019-01-28 22:37:38:3738,0.024628,-0.018524,0.025467,0.676346,0.567123,9.977417
2019-01-28 22:37:38:3738,0.024628,-0.018524,0.025467,0.592606,0.570724,9.964264
2019-01-28 22:37:38:3738,0.024628,-0.018524,0.025467,0.611740,0.653275,9.774033
2019-01-28 22:37:38:3738,0.024628,-0.018524,0.025467,0.608154,0.647278,9.685501
2019-01-28 22:37:38:3738,0.024628,-0.018524,0.025467,0.559097,0.632935,9.626877
2019-01-28 22:37:38:3738,0.024628,-0.018524,0.025467,0.504059,0.607803,9.517990
2019-01-28 22:37:38:3738,0.024628,-0.018524,0.025467,0.490906,0.616180,9.489288
2019-01-28 22:37:38:3738,0.024628,-0.018524,0.025467,0.537567,0.610199,9.532364
2019-01-28 22:37:38:3738,0.024628,-0.018524,0.025467,0.548325,0.644897,9.601746
2019-01-28 22:37:38:3738,0.024628,-0.018524,0.025467,0.542343,0.652069,9.703445
2019-01-28 22:37:38:3738,0.004303,-0.012833,-0.008362,0.542343,0.652069,9.703445
2019-01-28 22:37:38:3738,0.004303,-0.012833,-0.008362,0.642838,0.626953,9.771637
2019-01-28 22:37:38:3738,0.004303,-0.012833,-0.008362,0.615326,0.583878,9.787186
2019-01-28 22:37:38:3738,0.004303,-0.012833,-0.008362,0.600967,0.531235,9.945114
2019-01-28 22:37:38:3738,0.004303,-0.012833,-0.008362,0.624893,0.546783,9.892471
2019-01-28 22:37:38:3738,0.004303,-0.012833,-0.008362,0.604553,0.622162,9.710617
2019-01-28 22:37:38:3738,0.004303,-0.012833,-0.008362,0.584213,0.625748,9.622086
2019-01-28 22:37:38:3738,0.004303,-0.012833,-0.008362,0.577042,0.599426,9.573029
2019-01-28 22:37:38:3738,0.004303,-0.012833,-0.008362,0.581833,0.569519,9.573029
2019-01-28 22:37:38:3738,0.004303,-0.012833,-0.008362,0.572250,0.599426,9.611313
2019-01-28 22:37:38:3738,0.004303,-0.012833,-0.008362,0.616531,0.626953,9.701050
2019-01-28 22:37:38:3738,-0.008041,-0.025726,-0.003052,0.616531,0.626953,9.701050
2019-01-28 22:37:38:3738,-0.008041,-0.025726,-0.003052,0.608154,0.614975,9.832657
2019-01-28 22:37:38:3738,-0.008041,-0.025726,-0.003052,0.640457,0.637711,9.851791
2019-01-28 22:37:38:3738,-0.008041,-0.025726,-0.003052,0.675156,0.629333,9.888885
2019-01-28 22:37:38:3738,-0.008041,-0.025726,-0.003052,0.714630,0.570709,9.924774
2019-01-28 22:37:38:3738,-0.008041,-0.025726,-0.003052,0.732574,0.553970,9.904434
2019-01-28 22:37:38:3738,-0.008041,-0.025726,-0.003052,0.647629,0.528839,9.806335
2019-01-28 22:37:38:3738,-0.008041,-0.025726,-0.003052,0.603363,0.591049,9.689087
2019-01-28 22:37:38:3738,-0.008041,-0.025726,-0.003052,0.562683,0.631729,9.523972
2019-01-28 22:37:38:3738,-0.008041,-0.025726,-0.003052,0.583023,0.675995,9.348114
2019-01-28 22:37:38:3738,0.028244,-0.000610,0.021317,0.583023,0.675995,9.348114
2019-01-28 22:37:38:3738,0.028244,-0.000610,0.021317,0.578232,0.697540,9.343323
2019-01-28 22:37:38:3738,0.028244,-0.000610,0.021317,0.646439,0.612579,9.594574
2019-01-28 22:37:38:3738,0.028244,-0.000610,0.021317,0.742142,0.570709,9.675919
2019-01-28 22:37:38:3738,0.028244,-0.000610,0.021317,0.718216,0.549179,9.813507
2019-01-28 22:37:38:3738,0.028244,-0.000610,0.021317,0.646439,0.573105,9.946304
2019-01-28 22:37:38:3738,0.028244,-0.000610,0.021317,0.624893,0.563538,9.925980
2019-01-28 22:37:38:3738,0.028244,-0.000610,0.021317,0.598572,0.642502,9.729767
2019-01-28 22:37:38:3738,0.028244,-0.000610,0.021317,0.507660,0.678391,9.653198
2019-01-28 22:37:38:3738,0.028244,-0.000610,0.021317,0.499268,0.658051,9.641235
2019-01-28 22:37:39:3739,-0.036072,0.020447,-0.037567,0.499268,0.658051,9.641235
2019-01-28 22:37:39:3739,-0.036072,0.020447,-0.037567,0.556702,0.597046,9.653198
2019-01-28 22:37:39:3739,-0.036072,0.020447,-0.037567,0.665573,0.542007,9.673523
2019-01-28 22:37:39:3739,-0.036072,0.020447,-0.037567,0.687119,0.527649,9.707031
2019-01-28 22:37:39:3739,-0.036072,0.020447,-0.037567,0.628494,0.542007,9.791977
2019-01-28 22:37:39:3739,-0.036072,0.020447,-0.037567,0.644043,0.547974,9.881714
2019-01-28 22:37:39:3739,-0.036072,0.020447,-0.037567,0.604553,0.544403,9.832657
2019-01-28 22:37:39:3739,-0.036072,0.020447,-0.037567,0.585419,0.521667,9.809921
2019-01-28 22:37:39:3739,-0.036072,0.020447,-0.037567,0.642853,0.478592,9.734543
2019-01-28 22:37:39:3739,-0.036072,0.020447,-0.037567,0.652420,0.474991,9.655579
2019-01-28 22:37:39:3739,-0.036072,0.020447,-0.037567,0.548325,0.538406,9.587387
2019-01-28 22:37:39:3739,-0.006516,0.003281,-0.003113,0.548325,0.538406,9.587387
2019-01-28 22:37:39:3739,-0.006516,0.003281,-0.003113,0.530380,0.539612,9.641235
2019-01-28 22:37:39:3739,-0.006516,0.003281,-0.003113,0.532776,0.541992,9.689087
2019-01-28 22:37:39:3739,-0.006516,0.003281,-0.003113,0.572250,0.508499,9.709427
2019-01-28 22:37:39:3739,-0.006516,0.003281,-0.003113,0.602173,0.503708,9.793167
2019-01-28 22:37:39:3739,-0.006516,0.003281,-0.003113,0.606949,0.504913,9.845810
2019-01-28 22:37:39:3739,-0.006516,0.003281,-0.003113,0.598572,0.495346,9.793167
2019-01-28 22:37:39:3739,-0.006516,0.003281,-0.003113,0.587814,0.458252,9.696259
2019-01-28 22:37:39:3739,-0.006516,0.003281,-0.003113,0.562683,0.514481,9.677124
2019-01-28 22:37:39:3739,-0.006516,0.003281,-0.003113,0.471756,0.581482,9.632858
2019-01-28 22:37:39:3739,-0.020081,0.005554,0.002502,0.471756,0.581482,9.632858
2019-01-28 22:37:39:3739,-0.020081,0.005554,0.002502,0.547134,0.585068,9.669937
2019-01-28 22:37:39:3739,-0.020081,0.005554,0.002502,0.650024,0.563538,9.671143
2019-01-28 22:37:39:3739,-0.020081,0.005554,0.002502,0.664383,0.546783,9.742920
2019-01-28 22:37:39:3739,-0.020081,0.005554,0.002502,0.634476,0.588669,10.039642
2019-01-28 22:37:39:3739,-0.020081,0.005554,0.002502,0.560287,0.666428,9.961868
2019-01-28 22:37:39:3739,-0.020081,0.005554,0.002502,0.624893,0.592255,9.818298
2019-01-28 22:37:39:3739,-0.020081,0.005554,0.002502,0.624893,0.484573,9.912811
2019-01-28 22:37:39:3739,-0.020081,0.005554,0.002502,0.618912,0.447479,9.893677
2019-01-28 22:37:39:3739,-0.020081,0.005554,0.002502,0.618927,0.451080,9.595764
2019-01-28 22:37:39:3739,-0.020081,0.005554,0.002502,0.584229,0.500122,9.476120
2019-01-28 22:37:39:3739,0.036850,0.004623,-0.043060,0.584229,0.500122,9.476120
2019-01-28 22:37:39:3739,0.036850,0.004623,-0.043060,0.516022,0.503723,9.584991
2019-01-28 22:37:39:3739,0.036850,0.004623,-0.043060,0.523209,0.502518,9.680710
2019-01-28 22:37:39:3739,0.036850,0.004623,-0.043060,0.600967,0.472610,9.680710
2019-01-28 22:37:39:3739,0.036850,0.004623,-0.043060,0.651215,0.516876,9.671143
2019-01-28 22:37:39:3739,0.036850,0.004623,-0.043060,0.560287,0.616180,9.667557
2019-01-28 22:37:39:3739,0.036850,0.004623,-0.043060,0.523209,0.640106,9.674728
2019-01-28 22:37:39:3739,0.036850,0.004623,-0.043060,0.516022,0.600632,9.746506
2019-01-28 22:37:39:3739,0.036850,0.004623,-0.043060,0.554306,0.579086,9.894867
2019-01-28 22:37:39:3739,0.036850,0.004623,-0.043060,0.554306,0.556351,9.936737
2019-01-28 22:37:39:3739,0.027817,-0.005020,-0.012161,0.554306,0.556351,9.936737
2019-01-28 22:37:39:3739,0.027817,-0.005020,-0.012161,0.620102,0.490555,9.905640
2019-01-28 22:37:39:3739,0.027817,-0.005020,-0.012161,0.597382,0.494141,9.870941
2019-01-28 22:37:39:3739,0.027817,-0.005020,-0.012161,0.560287,0.606613,9.790787
2019-01-28 22:37:39:3739,0.027817,-0.005020,-0.012161,0.472946,0.732224,9.629257
2019-01-28 22:37:39:3739,0.027817,-0.005020,-0.012161,0.392792,0.799225,9.538330
2019-01-28 22:37:39:3739,0.027817,-0.005020,-0.012161,0.422714,0.781281,9.488083
2019-01-28 22:37:39:3739,0.027817,-0.005020,-0.012161,0.512436,0.702316,9.636444
2019-01-28 22:37:39:3739,0.027817,-0.005020,-0.012161,0.559097,0.623367,9.775223
2019-01-28 22:37:39:3739,0.027817,-0.005020,-0.012161,0.593796,0.582687,9.788391
2019-01-28 22:37:39:3739,0.027817,-0.005020,-0.012161,0.560287,0.592255,9.775223
2019-01-28 22:37:39:3739,-0.014145,-0.001419,-0.009949,0.560287,0.592255,9.775223
2019-01-28 22:37:39:3739,-0.014145,-0.001419,-0.009949,0.585419,0.641312,9.695068
2019-01-28 22:37:39:3739,-0.014145,-0.001419,-0.009949,0.525589,0.664032,9.642426
2019-01-28 22:37:39:3739,-0.014145,-0.001419,-0.009949,0.543549,0.647278,9.653198
2019-01-28 22:37:39:3739,-0.014145,-0.001419,-0.009949,0.618912,0.575500,9.638840
2019-01-28 22:37:39:3739,-0.014145,-0.001419,-0.009949,0.650024,0.579086,9.571838
2019-01-28 22:37:39:3739,-0.014145,-0.001419,-0.009949,0.639252,0.600632,9.552689
2019-01-28 22:37:40:3740,-0.014145,-0.001419,-0.009949,0.603363,0.564728,9.689087
