Time,Gx,Gy,Gz,Ax,Ay,Az
2019-01-28 23:01:10:110,0.000000,0.000000,0.000000,0.754105,0.021561,6.735153
2019-01-28 23:01:10:110,0.000000,0.000000,0.000000,0.469360,-0.095688,6.487488
2019-01-28 23:01:10:110,0.000000,0.000000,0.000000,0.082932,-0.077744,7.059372
2019-01-28 23:01:10:110,0.000000,0.000000,0.000000,-0.211395,-0.169876,8.667343
2019-01-28 23:01:10:110,0.000000,0.000000,0.000000,-0.279602,-0.553925,10.136536
2019-01-28 23:01:10:110,0.000000,0.000000,0.000000,0.259995,-0.455811,11.532745
2019-01-28 23:01:10:110,0.000000,0.000000,0.000000,0.466965,0.208206,11.447815
2019-01-28 23:01:10:110,0.000000,0.000000,0.000000,-0.191055,1.002609,10.156876
2019-01-28 23:01:10:110,0.000000,0.000000,0.000000,-0.947189,1.485977,9.628067
2019-01-28 23:01:10:110,-0.269547,0.039688,-0.038177,-0.947189,1.485977,9.628067
2019-01-28 23:01:10:110,-0.269547,0.039688,-0.038177,-0.898148,1.384277,10.314804
2019-01-28 23:01:10:110,-0.269547,0.039688,-0.038177,-0.191055,1.014587,11.437042
2019-01-28 23:01:10:110,-0.269547,0.039688,-0.038177,-0.021179,0.563538,11.786392
2019-01-28 23:01:10:110,-0.269547,0.039688,-0.038177,-0.198242,0.071808,11.812714
2019-01-28 23:01:10:110,-0.269547,0.039688,-0.038177,-3.977707,0.185471,12.885895
2019-01-28 23:01:10:110,-0.269547,0.039688,-0.038177,-2.459457,0.183075,12.578415
2019-01-28 23:01:10:110,-0.269547,0.039688,-0.038177,-2.726257,0.770508,12.207520
2019-01-28 23:01:10:110,-0.269547,0.039688,-0.038177,-2.184280,0.704712,10.239441
2019-01-28 23:01:11:111,-0.269547,0.039688,-0.038177,-0.776108,0.172318,9.161469
2019-01-28 23:01:11:111,-0.269547,0.039688,-0.038177,0.288712,-1.067184,10.308823
2019-01-28 23:01:11:111,-0.141144,0.204376,0.313232,0.288712,-1.067184,10.308823
2019-01-28 23:01:11:111,-0.141144,0.204376,0.313232,-0.228149,-1.012146,10.788589
2019-01-28 23:01:11:111,-0.141144,0.204376,0.313232,-0.675613,-0.282333,11.090088
2019-01-28 23:01:11:111,-0.141144,0.204376,0.313232,-0.668427,0.461838,10.823273
2019-01-28 23:01:11:111,-0.141144,0.204376,0.313232,-0.853882,0.890152,9.217697
2019-01-28 23:01:11:111,-0.141144,0.204376,0.313232,-1.051285,0.917679,8.824081
2019-01-28 23:01:11:111,-0.141144,0.204376,0.313232,-0.421967,1.131821,9.228470
2019-01-28 23:01:11:111,-0.141144,0.204376,0.313232,-0.127655,1.421356,8.381409
2019-01-28 23:01:11:111,-0.141144,0.204376,0.313232,-0.120468,1.458450,7.235245
2019-01-28 23:01:11:111,-0.141144,0.204376,0.313232,-0.459061,1.146179,8.126572
2019-01-28 23:01:11:111,0.032028,-0.003860,0.106766,-0.459061,1.146179,8.126572
2019-01-28 23:01:11:111,0.032028,-0.003860,0.106766,-1.100342,0.556351,10.564865
2019-01-28 23:01:11:111,0.032028,-0.003860,0.106766,-1.356369,-0.149536,12.543716
2019-01-28 23:01:11:111,0.032028,-0.003860,0.106766,-1.161346,-0.070572,12.231461
2019-01-28 23:01:11:111,0.032028,-0.003860,0.106766,-1.155365,0.684372,10.849594
2019-01-28 23:01:11:111,0.032028,-0.003860,0.106766,-0.878998,0.940399,8.112213
2019-01-28 23:01:11:111,0.032028,-0.003860,0.106766,-0.595444,0.942795,5.900055
2019-01-28 23:01:11:111,0.032028,-0.003860,0.106766,-0.192261,1.061249,5.362854
2019-01-28 23:01:11:111,0.032028,-0.003860,0.106766,-0.075012,1.216782,5.560272
2019-01-28 23:01:11:111,0.032028,-0.003860,0.106766,-0.046295,1.110291,5.727768
2019-01-28 23:01:11:111,0.032028,-0.003860,0.106766,-0.809601,0.470215,6.464752
2019-01-28 23:01:11:111,0.304108,-0.261093,-0.108490,-0.809601,0.470215,6.464752
2019-01-28 23:01:11:111,0.304108,-0.261093,-0.108490,-0.504517,0.142395,10.022888
2019-01-28 23:01:11:111,0.304108,-0.261093,-0.108490,0.094894,0.485764,12.622681
2019-01-28 23:01:11:111,0.304108,-0.261093,-0.108490,-0.000824,0.948776,12.092682
2019-01-28 23:01:11:111,0.304108,-0.261093,-0.108490,-0.090561,1.191650,10.767044
2019-01-28 23:01:11:111,0.304108,-0.261093,-0.108490,1.128586,0.653275,12.714813
2019-01-28 23:01:11:111,0.304108,-0.261093,-0.108490,2.214920,-0.477356,13.585800
2019-01-28 23:01:11:111,0.304108,-0.261093,-0.108490,1.341553,-0.355316,10.710815
2019-01-28 23:01:11:111,0.304108,-0.261093,-0.108490,0.750519,0.382874,9.388779
2019-01-28 23:01:11:111,0.304108,-0.261093,-0.108490,0.656006,1.095932,9.801544
2019-01-28 23:01:11:111,-0.059479,-0.462982,-0.270920,0.656006,1.095932,9.801544
2019-01-28 23:01:11:111,-0.059479,-0.462982,-0.270920,-0.217392,0.506104,10.342316
2019-01-28 23:01:11:111,-0.059479,-0.462982,-0.270920,0.209747,0.439117,11.699051
2019-01-28 23:01:11:111,-0.059479,-0.462982,-0.270920,0.408356,1.318466,11.378418
2019-01-28 23:01:11:111,-0.059479,-0.462982,-0.270920,0.666763,1.987259,10.430862
2019-01-28 23:01:11:111,-0.059479,-0.462982,-0.270920,1.755508,1.049286,11.572235
2019-01-28 23:01:11:111,-0.059479,-0.462982,-0.270920,2.055801,0.658051,12.124969
2019-01-28 23:01:11:111,-0.059479,-0.462982,-0.270920,2.055801,0.658051,12.124969
2019-01-28 23:01:11:111,-0.059479,-0.462982,-0.270920,0.907242,1.808990,7.320190
2019-01-28 23:01:11:111,-0.059479,-0.462982,-0.270920,0.170258,2.170319,5.980209
2019-01-28 23:01:11:111,-0.059479,-0.462982,-0.270920,0.392792,1.718063,5.901245
2019-01-28 23:01:11:111,-0.059479,-0.462982,-0.270920,-1.097931,1.337616,6.116592
2019-01-28 23:01:11:111,-0.059479,-0.462982,-0.270920,0.175049,1.710892,5.697845
2019-01-28 23:01:11:111,-0.059479,-0.462982,-0.270920,0.002762,1.414185,3.242813
2019-01-28 23:01:11:111,-0.059479,-0.462982,-0.270920,0.971848,1.773102,4.056381
2019-01-28 23:01:11:111,0.443802,0.233322,-0.271225,0.971848,1.773102,4.056381
2019-01-28 23:01:11:111,0.443802,0.233322,-0.271225,-0.940018,0.466629,7.521179
2019-01-28 23:01:11:111,0.443802,0.233322,-0.271225,-0.771332,0.573105,8.121780
2019-01-28 23:01:11:111,0.443802,0.233322,-0.271225,-0.277206,0.905716,9.998962
2019-01-28 23:01:11:111,0.443802,0.233322,-0.271225,0.003967,1.188065,10.254990
2019-01-28 23:01:11:111,0.443802,0.233322,-0.271225,-0.219772,1.371109,10.476318
2019-01-28 23:01:11:111,0.443802,0.233322,-0.271225,0.079330,1.581680,11.003937
2019-01-28 23:01:11:111,0.443802,0.233322,-0.271225,0.554306,1.316086,12.264954
2019-01-28 23:01:11:111,0.443802,0.233322,-0.271225,1.655014,0.744202,12.552094
2019-01-28 23:01:11:111,0.443802,0.233322,-0.271225,1.820114,0.472610,11.604538
2019-01-28 23:01:11:111,0.443802,0.233322,-0.271225,1.115433,0.528839,11.682297
2019-01-28 23:01:11:111,-0.506195,-0.338882,0.103989,1.115433,0.528839,11.682297
2019-01-28 23:01:11:111,-0.506195,-0.338882,0.103989,1.846436,0.214188,12.032852
2019-01-28 23:01:11:111,-0.506195,-0.338882,0.103989,1.431274,0.087372,12.093872
2019-01-28 23:01:12:112,-0.506195,-0.338882,0.103989,1.620316,0.230927,11.516006
2019-01-28 23:01:12:112,-0.506195,-0.338882,0.103989,0.959900,1.159348,9.415100
2019-01-28 23:01:12:112,-0.506195,-0.338882,0.103989,0.321014,2.009995,7.366852
2019-01-28 23:01:12:112,-0.506195,-0.338882,0.103989,-0.023560,2.220566,7.193359
2019-01-28 23:01:12:112,-0.506195,-0.338882,0.103989,-0.023560,2.220566,7.193359
2019-01-28 23:01:12:112,-0.506195,-0.338882,0.103989,1.148926,0.512085,11.186981
2019-01-28 23:01:12:112,-0.506195,-0.338882,0.103989,1.541351,0.696335,10.981201
2019-01-28 23:01:12:112,-0.506195,-0.338882,0.103989,1.407349,0.849472,10.100647
2019-01-28 23:01:12:112,-0.506195,-0.338882,0.103989,1.024490,0.217773,9.626862
2019-01-28 23:01:12:112,-0.506195,-0.338882,0.103989,0.971848,-0.059799,10.038437
2019-01-28 23:01:12:112,-0.506195,-0.338882,0.103989,1.273346,0.184265,9.873322
2019-01-28 23:01:12:112,-0.506195,-0.338882,0.103989,1.201569,0.811188,7.564255
2019-01-28 23:01:12:112,0.175018,-0.014786,0.034210,1.201569,0.811188,7.564255
2019-01-28 23:01:12:112,0.175018,-0.014786,0.034210,0.237259,1.079178,5.855774
2019-01-28 23:01:12:112,0.175018,-0.014786,0.034210,-0.411194,1.182083,7.401535
2019-01-28 23:01:12:112,0.175018,-0.014786,0.034210,-0.033127,1.148575,9.105225
2019-01-28 23:01:12:112,0.175018,-0.014786,0.034210,0.318619,1.091156,10.086288
2019-01-28 23:01:12:112,0.175018,-0.014786,0.034210,0.864182,1.048080,10.488281
2019-01-28 23:01:12:112,0.175018,-0.014786,0.034210,1.249420,1.282578,11.215698
2019-01-28 23:01:12:112,0.175018,-0.014786,0.034210,1.017319,1.617569,11.830658
2019-01-28 23:01:12:112,0.175018,-0.014786,0.034210,0.581818,1.880783,11.617691
2019-01-28 23:01:12:112,0.175018,-0.014786,0.034210,0.579437,1.323257,11.617691
2019-01-28 23:01:12:112,0.175018,-0.014786,0.034210,1.292496,0.193848,11.579407
2019-01-28 23:01:12:112,-0.093628,0.075241,-0.004395,1.292496,0.193848,11.579407
2019-01-28 23:01:12:112,-0.093628,0.075241,-0.004395,1.235062,-0.258408,10.478714
2019-01-28 23:01:12:112,-0.093628,0.075241,-0.004395,1.328384,0.303909,9.078903
2019-01-28 23:01:12:112,-0.093628,0.075241,-0.004395,1.079529,0.567123,6.934937
2019-01-28 23:01:12:112,-0.093628,0.075241,-0.004395,0.419113,0.768112,6.104630
2019-01-28 23:01:12:112,-0.093628,0.075241,-0.004395,-0.136017,0.909302,6.427658
2019-01-28 23:01:12:112,-0.093628,0.075241,-0.004395,-0.066635,0.851868,6.846405
2019-01-28 23:01:12:112,-0.093628,0.075241,-0.004395,0.496887,0.177094,9.300247
2019-01-28 23:01:12:112,-0.093628,0.075241,-0.004395,0.731384,-0.166290,10.046814
2019-01-28 23:01:12:112,-0.093628,0.075241,-0.004395,1.230286,-0.278748,11.711014
2019-01-28 23:01:12:112,-0.093628,0.075241,-0.004395,1.060394,0.068222,12.363068
2019-01-28 23:01:12:112,-0.093628,0.075241,-0.004395,0.423904,0.317078,13.279510
2019-01-28 23:01:12:112,-0.093628,0.075241,-0.004395,0.702667,-0.410355,13.030655
2019-01-28 23:01:12:112,-0.093628,0.075241,-0.004395,1.879929,-2.003967,9.634048
2019-01-28 23:01:12:112,-0.093628,0.075241,-0.004395,2.395584,-2.458603,10.599548
2019-01-28 23:01:12:112,-0.359222,0.057465,-0.178375,2.395584,-2.458603,10.599548
2019-01-28 23:01:12:112,-0.359222,0.057465,-0.178375,0.222900,0.155563,14.596756
2019-01-28 23:01:12:112,-0.359222,0.057465,-0.178375,-3.180893,3.091553,10.643814
2019-01-28 23:01:12:112,-0.359222,0.057465,-0.178375,-3.446487,4.664841,3.391174
2019-01-28 23:01:12:112,-0.359222,0.057465,-0.178375,-3.013397,7.702530,1.766449
2019-01-28 23:01:12:112,-0.359222,0.057465,-0.178375,-3.537415,6.853073,10.341125
2019-01-28 23:01:12:112,-0.359222,0.057465,-0.178375,9.667374,-12.425919,39.092087
2019-01-28 23:01:12:112,-0.359222,0.057465,-0.178375,5.418915,-8.659607,18.276932
2019-01-28 23:01:12:112,-0.359222,0.057465,-0.178375,3.197189,-3.528198,18.422882
2019-01-28 23:01:12:112,-0.359222,0.057465,-0.178375,-2.222565,0.157944,8.215103
2019-01-28 23:01:12:112,-0.359222,0.057465,-0.178375,-6.151581,1.520676,-2.814621
2019-01-28 23:01:12:112,0.513870,-0.378021,-0.150894,-6.151581,1.520676,-2.814621
2019-01-28 23:01:12:112,0.513870,-0.378021,-0.150894,-5.029343,-0.939163,-9.180725
2019-01-28 23:01:12:112,0.513870,-0.378021,-0.150894,-1.052475,-5.210358,-12.915924
2019-01-28 23:01:12:112,0.513870,-0.378021,-0.150894,5.895081,-6.714249,-9.404449
2019-01-28 23:01:12:112,0.513870,-0.378021,-0.150894,7.966080,-6.449829,3.748901
2019-01-28 23:01:13:113,0.513870,-0.378021,-0.150894,5.048035,-2.114044,14.696060
2019-01-28 23:01:13:113,0.513870,-0.378021,-0.150894,-7.807419,9.513885,9.346909
2019-01-28 23:01:13:113,0.513870,-0.378021,-0.150894,-1.769119,7.957352,31.756897
2019-01-28 23:01:13:113,0.513870,-0.378021,-0.150894,0.403564,4.078583,16.344727
2019-01-28 23:01:13:113,0.513870,-0.378021,-0.150894,2.077347,1.643906,13.432663
2019-01-28 23:01:13:113,0.513870,-0.378021,-0.150894,0.084122,0.790848,11.937134
2019-01-28 23:01:13:113,-0.228622,-0.180954,-0.416672,0.084122,0.790848,11.937134
2019-01-28 23:01:13:113,-0.228622,-0.180954,-0.416672,-1.194855,1.307709,9.218887
2019-01-28 23:01:13:113,-0.228622,-0.180954,-0.416672,-2.364944,2.286377,6.745911
2019-01-28 23:01:13:113,-0.228622,-0.180954,-0.416672,-0.070221,2.033920,9.501251
2019-01-28 23:01:13:113,-0.228622,-0.180954,-0.416672,3.635071,0.135223,15.326569
2019-01-28 23:01:13:113,-0.228622,-0.180954,-0.416672,5.648636,-0.744156,15.878128
2019-01-28 23:01:13:113,-0.228622,-0.180954,-0.416672,3.285721,-0.135178,11.380814
2019-01-28 23:01:13:113,-0.228622,-0.180954,-0.416672,2.055801,-0.454620,9.872131
2019-01-28 23:01:13:113,-0.228622,-0.180954,-0.416672,0.590210,-0.558701,8.983200
2019-01-28 23:01:13:113,-0.228622,-0.180954,-0.416672,-0.551178,-0.856613,7.340530
2019-01-28 23:01:13:113,-0.228622,-0.180954,-0.416672,-1.014191,-1.374649,6.733948
2019-01-28 23:01:13:113,-1.225067,-0.068985,0.489288,-1.014191,-1.374649,6.733948
2019-01-28 23:01:13:113,-1.225067,-0.068985,0.489288,-0.346603,-1.950134,9.263168
2019-01-28 23:01:13:113,-1.225067,-0.068985,0.489288,-0.169525,-2.050629,9.619690
2019-01-28 23:01:13:113,-1.225067,-0.068985,0.489288,-0.169525,-2.050629,9.619690
2019-01-28 23:01:13:113,-1.225067,-0.068985,0.489288,3.304855,-2.399979,6.480301
2019-01-28 23:01:13:113,-1.225067,-0.068985,0.489288,3.974854,-2.902466,6.559265
2019-01-28 23:01:13:113,-1.225067,-0.068985,0.489288,3.654205,-2.720612,8.370636
2019-01-28 23:01:13:113,-1.225067,-0.068985,0.489288,2.474548,-2.505264,9.519196
2019-01-28 23:01:13:113,-1.225067,-0.068985,0.489288,1.397781,-1.576843,7.894470
2019-01-28 23:01:13:113,-1.225067,-0.068985,0.489288,0.012329,-0.741745,6.482697
2019-01-28 23:01:13:113,-1.225067,-0.068985,0.489288,-0.932831,-0.172256,7.492462
2019-01-28 23:01:13:113,0.187485,0.186295,-0.023468,-0.932831,-0.172256,7.492462
2019-01-28 23:01:13:113,0.187485,0.186295,-0.023468,0.206146,-0.074158,8.454376
2019-01-28 23:01:13:113,0.187485,0.186295,-0.023468,0.293488,0.055054,8.389771
2019-01-28 23:01:13:113,0.187485,0.186295,-0.023468,0.409546,0.448685,8.691269
2019-01-28 23:01:13:113,0.187485,0.186295,-0.023468,0.371262,0.009598,11.829468
2019-01-28 23:01:13:113,0.187485,0.186295,-0.023468,1.290100,-0.695099,14.629059
2019-01-28 23:01:13:113,0.187485,0.186295,-0.023468,1.815338,-0.659195,15.039429
2019-01-28 23:01:13:113,0.187485,0.186295,-0.023468,1.439651,-0.184235,13.004349
2019-01-28 23:01:13:113,0.187485,0.186295,-0.023468,1.285324,0.035919,10.167648
2019-01-28 23:01:13:113,0.187485,0.186295,-0.023468,1.290100,0.059845,8.107422
2019-01-28 23:01:13:113,0.187485,0.186295,-0.023468,1.251816,-0.102875,7.336929
2019-01-28 23:01:13:113,0.514420,0.071915,0.168335,1.251816,-0.102875,7.336929
2019-01-28 23:01:13:113,0.514420,0.071915,0.168335,1.302063,-0.454620,7.072540
2019-01-28 23:01:13:113,0.514420,0.071915,0.168335,1.419312,-0.916428,7.792770
2019-01-28 23:01:13:113,0.514420,0.071915,0.168335,1.647827,-1.336380,9.031052
2019-01-28 23:01:13:113,0.514420,0.071915,0.168335,1.152512,-1.659409,9.750107
2019-01-28 23:01:13:113,0.514420,0.071915,0.168335,0.770859,-1.527802,10.747910
2019-01-28 23:01:13:113,0.514420,0.071915,0.168335,1.163284,-0.635284,11.316208
2019-01-28 23:01:13:113,0.514420,0.071915,0.168335,1.038849,0.532425,9.509613
2019-01-28 23:01:13:113,0.514420,0.071915,0.168335,0.858200,1.270615,6.999542
2019-01-28 23:01:13:113,0.514420,0.071915,0.168335,0.382019,0.847092,7.045013
2019-01-28 23:01:13:113,0.514420,0.071915,0.168335,0.051819,0.123260,9.296661
2019-01-28 23:01:13:113,-0.292648,0.317261,-0.035492,0.051819,0.123260,9.296661
2019-01-28 23:01:13:113,-0.292648,0.317261,-0.035492,0.194183,-0.953522,11.756485
2019-01-28 23:01:13:113,-0.292648,0.317261,-0.035492,0.192993,-1.666580,12.733948
2019-01-28 23:01:13:113,-0.292648,0.317261,-0.035492,0.609344,-1.339966,11.940735
2019-01-28 23:01:13:113,-0.292648,0.317261,-0.035492,-0.065430,-1.070770,10.381805
2019-01-28 23:01:14:114,-0.292648,0.317261,-0.035492,-0.920868,-1.036072,9.965454
2019-01-28 23:01:14:114,-0.292648,0.317261,-0.035492,-0.031937,-0.766876,10.933350
2019-01-28 23:01:14:114,-0.292648,0.317261,-0.035492,0.057800,-0.208160,11.181015
2019-01-28 23:01:14:114,-0.292648,0.317261,-0.035492,0.265976,-0.065781,9.758484
2019-01-28 23:01:14:114,-0.292648,0.317261,-0.035492,0.399979,-0.179443,9.233246
2019-01-28 23:01:14:114,-0.292648,0.317261,-0.035492,0.779236,-0.397186,9.964264
2019-01-28 23:01:14:114,0.068985,-0.112839,0.006348,0.779236,-0.397186,9.964264
2019-01-28 23:01:14:114,0.068985,-0.112839,0.006348,1.099884,-0.646042,10.050400
2019-01-28 23:01:14:114,0.068985,-0.112839,0.006348,0.672760,-1.205963,9.721390
2019-01-28 23:01:14:114,0.068985,-0.112839,0.006348,0.280334,-1.816132,9.309814
2019-01-28 23:01:14:114,0.068985,-0.112839,0.006348,0.806747,-1.837662,9.363663
2019-01-28 23:01:14:114,0.068985,-0.112839,0.006348,1.156113,-1.207153,8.721191
2019-01-28 23:01:14:114,0.068985,-0.112839,0.006348,0.624893,-0.216537,7.627670
2019-01-28 23:01:14:114,0.068985,-0.112839,0.006348,-0.169525,0.598236,7.498459
2019-01-28 23:01:14:114,0.068985,-0.112839,0.006348,-0.063049,0.409195,8.061966
2019-01-28 23:01:14:114,0.068985,-0.112839,0.006348,0.646439,-0.978638,9.630463
2019-01-28 23:01:14:114,0.068985,-0.112839,0.006348,1.394196,-1.333984,11.152298
2019-01-28 23:01:14:114,0.058289,0.091919,0.115082,1.394196,-1.333984,11.152298
2019-01-28 23:01:14:114,0.058289,0.091919,0.115082,1.425308,-0.696289,11.654785
2019-01-28 23:01:14:114,0.058289,0.091919,0.115082,0.717026,-0.841064,11.541138
2019-01-28 23:01:14:114,0.058289,0.091919,0.115082,-0.144409,-1.231094,11.062561
2019-01-28 23:01:14:114,0.058289,0.091919,0.115082,-0.825165,-0.367279,10.588791
2019-01-28 23:01:14:114,0.058289,0.091919,0.115082,-0.686371,0.911682,9.733353
2019-01-28 23:01:14:114,0.058289,0.091919,0.115082,-0.415985,0.775299,8.613510
2019-01-28 23:01:14:114,0.058289,0.091919,0.115082,0.063782,-1.363892,10.031265
2019-01-28 23:01:14:114,0.058289,0.091919,0.115082,1.236267,-1.792206,12.846405
2019-01-28 23:01:14:114,0.058289,0.091919,0.115082,1.683716,-0.666382,14.814514
2019-01-28 23:01:14:114,0.058289,0.091919,0.115082,-0.046295,1.097137,12.066360
2019-01-28 23:01:14:114,0.530426,-0.018402,0.023880,-0.046295,1.097137,12.066360
2019-01-28 23:01:14:114,0.530426,-0.018402,0.023880,-1.284576,3.564133,8.690079
2019-01-28 23:01:14:114,0.530426,-0.018402,0.023880,-0.868225,4.426743,7.719788
2019-01-28 23:01:14:114,0.530426,-0.018402,0.023880,1.322403,2.965927,8.358673
2019-01-28 23:01:14:114,0.530426,-0.018402,0.023880,2.526001,1.795837,9.744125
2019-01-28 23:01:14:114,0.530426,-0.018402,0.023880,1.426483,1.426147,10.422485
2019-01-28 23:01:14:114,0.530426,-0.018402,0.023880,1.684921,1.728836,9.399551
2019-01-28 23:01:14:114,0.530426,-0.018402,0.023880,2.402771,1.581680,7.229263
2019-01-28 23:01:14:114,0.530426,-0.018402,0.023880,0.685913,1.628342,6.209915
2019-01-28 23:01:14:114,0.530426,-0.018402,0.023880,0.568665,1.287369,7.632446
2019-01-28 23:01:14:114,0.530426,-0.018402,0.023880,0.289902,-0.076553,8.344315
2019-01-28 23:01:14:114,0.514908,-0.042587,-0.074585,0.289902,-0.076553,8.344315
2019-01-28 23:01:14:114,0.514908,-0.042587,-0.074585,1.406158,-0.443848,9.534744
2019-01-28 23:01:14:114,0.514908,-0.042587,-0.074585,3.195984,0.708298,9.590973
2019-01-28 23:01:14:114,0.514908,-0.042587,-0.074585,3.235474,2.062637,6.538940
2019-01-28 23:01:14:114,0.514908,-0.042587,-0.074585,-1.090759,2.252869,4.787384
2019-01-28 23:01:14:114,0.514908,-0.042587,-0.074585,-3.305328,2.851074,9.161469
2019-01-28 23:01:14:114,0.514908,-0.042587,-0.074585,-3.613998,2.110504,11.352097
2019-01-28 23:01:14:114,0.514908,-0.042587,-0.074585,-1.053680,1.940613,10.953690
2019-01-28 23:01:14:114,0.514908,-0.042587,-0.074585,-0.429153,1.816177,10.552887
2019-01-28 23:01:14:114,0.514908,-0.042587,-0.074585,-0.968735,1.817383,11.068542
2019-01-28 23:01:14:114,0.514908,-0.042587,-0.074585,-1.578903,1.112686,12.788986
2019-01-28 23:01:14:114,-0.591415,0.217453,-0.411667,-1.578903,1.112686,12.788986
2019-01-28 23:01:14:114,-0.591415,0.217453,-0.411667,-1.210403,0.276398,14.551300
2019-01-28 23:01:14:114,-0.591415,0.217453,-0.411667,0.481323,-0.141159,14.425674
2019-01-28 23:01:14:114,-0.591415,0.217453,-0.411667,1.159698,0.011993,12.881104
2019-01-28 23:01:14:114,-0.591415,0.217453,-0.411667,1.188400,0.672409,12.558075
2019-01-28 23:01:14:114,-0.591415,0.217453,-0.411667,0.994583,1.675003,11.105637
2019-01-28 23:01:15:115,-0.591415,0.217453,-0.411667,0.352112,2.470612,8.996353
2019-01-28 23:01:15:115,0.994553,-0.279846,0.151245,0.352112,2.470612,8.996353
2019-01-28 23:01:15:115,0.994553,-0.279846,0.151245,-0.171921,2.822357,8.534546
2019-01-28 23:01:15:115,0.994553,-0.279846,0.151245,0.769669,1.920273,9.509613
2019-01-28 23:01:15:115,0.994553,-0.279846,0.151245,1.150116,-0.342163,8.828857
2019-01-28 23:01:15:115,0.994553,-0.279846,0.151245,0.817520,0.416382,8.361069
2019-01-28 23:01:15:115,0.994553,-0.279846,0.151245,1.546143,1.611588,7.633652
2019-01-28 23:01:15:115,0.994553,-0.279846,0.151245,0.178635,2.056656,5.865356
2019-01-28 23:01:15:115,0.994553,-0.279846,0.151245,1.029282,1.968124,4.655777
2019-01-28 23:01:15:115,0.994553,-0.279846,0.151245,0.907257,2.745789,2.964050
2019-01-28 23:01:15:115,0.994553,-0.279846,0.151245,1.802170,5.663834,4.447601
2019-01-28 23:01:15:115,0.994553,-0.279846,0.151245,0.714630,6.134033,4.211914
2019-01-28 23:01:15:115,-0.000107,-0.055725,-0.124008,0.714630,6.134033,4.211914
2019-01-28 23:01:15:115,-0.000107,-0.055725,-0.124008,-1.058456,4.841904,3.250000
2019-01-28 23:01:15:115,-0.000107,-0.055725,-0.124008,-2.035934,3.829742,5.513611
2019-01-28 23:01:15:115,-0.000107,-0.055725,-0.124008,-2.279999,3.131042,11.594971
2019-01-28 23:01:15:115,-0.000107,-0.055725,-0.124008,-0.827560,3.978088,15.449799
2019-01-28 23:01:15:115,-0.000107,-0.055725,-0.124008,0.421509,3.461243,15.557480
2019-01-28 23:01:15:115,-0.000107,-0.055725,-0.124008,1.547333,1.978882,13.204132
2019-01-28 23:01:15:115,-0.000107,-0.055725,-0.124008,2.801163,2.036316,10.513412
2019-01-28 23:01:15:115,-0.000107,-0.055725,-0.124008,2.880127,2.242096,8.227066
2019-01-28 23:01:15:115,-0.000107,-0.055725,-0.124008,0.621307,2.609406,7.366852
2019-01-28 23:01:15:115,-0.491486,0.493744,-0.130417,0.621307,2.609406,7.366852
2019-01-28 23:01:15:115,-0.491486,0.493744,-0.130417,0.230087,2.354568,5.886887
2019-01-28 23:01:15:115,-0.491486,0.493744,-0.130417,1.201569,1.972916,6.644226
2019-01-28 23:01:15:115,-0.491486,0.493744,-0.130417,0.892899,1.506317,9.777618
2019-01-28 23:01:15:115,-0.491486,0.493744,-0.130417,0.277939,0.969116,11.106827
2019-01-28 23:01:15:115,-0.491486,0.493744,-0.130417,-0.253281,1.355560,10.463165
2019-01-28 23:01:15:115,-0.491486,0.493744,-0.130417,-1.145798,1.843704,9.963058
2019-01-28 23:01:15:115,-0.491486,0.493744,-0.130417,-1.577698,1.891556,11.306641
2019-01-28 23:01:15:115,-0.491486,0.493744,-0.130417,-1.578903,2.216980,11.163071
2019-01-28 23:01:15:115,-0.491486,0.493744,-0.130417,-1.586075,2.656052,9.967850
2019-01-28 23:01:15:115,-0.491486,0.493744,-0.130417,-1.245102,2.940811,9.675919
2019-01-28 23:01:15:115,-0.137299,-0.257248,0.002625,-1.245102,2.940811,9.675919
2019-01-28 23:01:15:115,-0.137299,-0.257248,0.002625,-0.980698,2.720673,10.160477
2019-01-28 23:01:15:115,-0.137299,-0.257248,0.002625,-0.651672,1.937012,11.773224
2019-01-28 23:01:15:115,-0.137299,-0.257248,0.002625,-0.613403,1.630737,12.174026
2019-01-28 23:01:15:115,-0.137299,-0.257248,0.002625,-0.004425,1.332825,11.481308
2019-01-28 23:01:15:115,-0.137299,-0.257248,0.002625,0.370056,1.121063,10.729965
2019-01-28 23:01:15:115,-0.137299,-0.257248,0.002625,0.709854,0.496536,10.599548
2019-01-28 23:01:15:115,-0.137299,-0.257248,0.002625,0.401169,-0.070572,9.239243
2019-01-28 23:01:15:115,-0.137299,-0.257248,0.002625,0.617722,0.606613,7.405136
2019-01-28 23:01:15:115,-0.137299,-0.257248,0.002625,2.555908,1.197632,5.939529
2019-01-28 23:01:15:115,0.064713,-0.236542,0.030472,2.555908,1.197632,5.939529
2019-01-28 23:01:15:115,0.064713,-0.236542,0.030472,2.242447,0.598236,5.208527
2019-01-28 23:01:15:115,0.064713,-0.236542,0.030472,1.335571,0.999023,6.495865
2019-01-28 23:01:15:115,0.064713,-0.236542,0.030472,-0.667236,1.837708,9.400742
2019-01-28 23:01:15:115,0.064713,-0.236542,0.030472,-0.642105,2.226547,11.788788
2019-01-28 23:01:15:115,0.064713,-0.236542,0.030472,-0.177902,2.297134,12.468353
2019-01-28 23:01:15:115,0.064713,-0.236542,0.030472,0.443054,2.848679,12.733948
2019-01-28 23:01:15:115,0.064713,-0.236542,0.030472,1.085510,2.696732,14.028473
2019-01-28 23:01:15:115,0.064713,-0.236542,0.030472,1.024506,2.044693,14.089493
2019-01-28 23:01:15:115,0.064713,-0.236542,0.030472,0.940750,1.928635,12.763870
2019-01-28 23:01:15:115,0.064713,-0.236542,0.030472,1.513824,1.806610,10.921387
2019-01-28 23:01:16:116,0.231522,-0.138611,-0.154861,1.513824,1.806610,10.921387
2019-01-28 23:01:16:116,0.231522,-0.138611,-0.154861,0.768463,1.519470,10.727570
2019-01-28 23:01:16:116,0.231522,-0.138611,-0.154861,1.147736,1.946594,9.655594
2019-01-28 23:01:16:116,0.231522,-0.138611,-0.154861,0.819916,0.936813,8.910217
2019-01-28 23:01:16:116,0.231522,-0.138611,-0.154861,2.179047,1.572113,7.066544
2019-01-28 23:01:16:116,0.231522,-0.138611,-0.154861,2.012741,1.350784,6.200348
2019-01-28 23:01:16:116,0.231522,-0.138611,-0.154861,0.624893,1.739609,7.667145
2019-01-28 23:01:16:116,0.231522,-0.138611,-0.154861,-0.003220,2.260056,8.851593
2019-01-28 23:01:16:116,0.231522,-0.138611,-0.154861,1.038849,3.300919,7.896851
2019-01-28 23:01:16:116,0.231522,-0.138611,-0.154861,1.190796,2.015976,8.381409
2019-01-28 23:01:16:116,0.215836,-0.461029,-0.235916,1.190796,2.015976,8.381409
2019-01-28 23:01:16:116,0.215836,-0.461029,-0.235916,0.228897,0.329041,10.604340
2019-01-28 23:01:16:116,0.215836,-0.461029,-0.235916,-1.048889,-0.972656,11.962265
2019-01-28 23:01:16:116,0.215836,-0.461029,-0.235916,3.184021,2.664429,10.842422
2019-01-28 23:01:16:116,0.215836,-0.461029,-0.235916,2.875351,2.770920,8.575226
2019-01-28 23:01:16:116,0.215836,-0.461029,-0.235916,1.449219,2.447891,8.081100
2019-01-28 23:01:16:116,0.215836,-0.461029,-0.235916,0.939560,2.910904,8.514206
2019-01-28 23:01:16:116,0.215836,-0.461029,-0.235916,0.268372,2.955154,8.440033
2019-01-28 23:01:16:116,0.215836,-0.461029,-0.235916,1.095093,3.007813,8.029663
2019-01-28 23:01:16:116,0.215836,-0.461029,-0.235916,1.430084,2.502914,7.773636
2019-01-28 23:01:16:116,0.215836,-0.461029,-0.235916,1.836868,1.877197,8.886292
2019-01-28 23:01:16:116,-0.138290,0.128326,0.121552,1.836868,1.877197,8.886292
2019-01-28 23:01:16:116,-0.138290,0.128326,0.121552,2.613342,2.123657,8.880310
2019-01-28 23:01:16:116,-0.138290,0.128326,0.121552,2.242447,1.840103,8.189987
2019-01-28 23:01:16:116,-0.138290,0.128326,0.121552,2.198181,1.886765,7.106033
2019-01-28 23:01:16:116,-0.138290,0.128326,0.121552,1.731583,2.717072,6.336731
2019-01-28 23:01:16:116,-0.138290,0.128326,0.121552,1.245834,3.104721,5.783997
2019-01-28 23:01:16:116,-0.138290,0.128326,0.121552,1.299683,2.635727,6.410919
2019-01-28 23:01:16:116,-0.138290,0.128326,0.121552,1.211151,1.975296,7.673126
2019-01-28 23:01:16:116,-0.138290,0.128326,0.121552,1.883514,1.684570,10.969238
2019-01-28 23:01:16:116,-0.138290,0.128326,0.121552,1.047241,1.453659,12.459976
2019-01-28 23:01:16:116,-0.138290,0.128326,0.121552,0.968277,1.992050,13.210129
2019-01-28 23:01:16:116,-0.263504,0.171387,-0.015823,0.968277,1.992050,13.210129
2019-01-28 23:01:16:116,-0.263504,0.171387,-0.015823,1.016129,2.084167,13.706635
2019-01-28 23:01:16:116,-0.263504,0.171387,-0.015823,0.943146,2.096130,12.306839
2019-01-28 23:01:16:116,-0.263504,0.171387,-0.015823,1.461197,1.602020,11.194168
2019-01-28 23:01:16:116,-0.263504,0.171387,-0.015823,1.939758,0.964325,10.653397
2019-01-28 23:01:16:116,-0.263504,0.171387,-0.015823,2.278336,0.771713,9.270340
2019-01-28 23:01:16:116,-0.263504,0.171387,-0.015823,1.958893,1.284973,8.173233
2019-01-28 23:01:16:116,-0.263504,0.171387,-0.015823,1.302063,2.289963,7.381210
2019-01-28 23:01:16:116,-0.263504,0.171387,-0.015823,1.159698,2.840302,7.318985
2019-01-28 23:01:16:116,-0.263504,0.171387,-0.015823,1.382233,2.550781,8.271347
2019-01-28 23:01:16:116,-0.138947,0.067596,-0.167984,1.382233,2.550781,8.271347
2019-01-28 23:01:16:116,-0.138947,0.067596,-0.167984,1.588013,1.993256,10.052795
2019-01-28 23:01:16:116,-0.138947,0.067596,-0.167984,1.397781,1.406998,11.435852
2019-01-28 23:01:16:116,-0.138947,0.067596,-0.167984,1.235062,1.700134,12.293671
2019-01-28 23:01:16:116,-0.138947,0.067596,-0.167984,0.937164,2.379684,12.513809
2019-01-28 23:01:16:116,-0.138947,0.067596,-0.167984,0.988617,2.534027,12.191986
2019-01-28 23:01:16:116,-0.138947,0.067596,-0.167984,1.869171,1.598434,12.214706
2019-01-28 23:01:16:116,-0.138947,0.067596,-0.167984,2.360886,0.665237,12.101044
2019-01-28 23:01:16:116,-0.138947,0.067596,-0.167984,1.790207,0.681976,11.189392
2019-01-28 23:01:16:116,-0.138947,0.067596,-0.167984,1.123810,1.018173,9.641220
2019-01-28 23:01:16:116,-0.138947,0.067596,-0.167984,0.201370,1.933426,7.899246
2019-01-28 23:01:17:117,0.673920,-0.063232,-0.183990,0.201370,1.933426,7.899246
2019-01-28 23:01:17:117,0.673920,-0.063232,-0.183990,0.015930,2.487366,6.278122
2019-01-28 23:01:17:117,0.673920,-0.063232,-0.183990,0.609344,2.226547,5.409515
2019-01-28 23:01:17:117,0.673920,-0.063232,-0.183990,1.213531,2.342590,5.091278
2019-01-28 23:01:17:117,0.673920,-0.063232,-0.183990,1.186020,2.900131,4.857971
2019-01-28 23:01:17:117,0.673920,-0.063232,-0.183990,0.291107,3.298523,5.766052
2019-01-28 23:01:17:117,0.673920,-0.063232,-0.183990,-0.096542,3.522263,7.563065
2019-01-28 23:01:17:117,0.673920,-0.063232,-0.183990,-0.112091,2.815186,9.851791
2019-01-28 23:01:17:117,0.673920,-0.063232,-0.183990,0.286316,2.733826,10.901047
2019-01-28 23:01:17:117,0.673920,-0.063232,-0.183990,-0.660049,3.068817,10.061172
2019-01-28 23:01:17:117,-0.234253,-0.023346,0.187897,-0.660049,3.068817,10.061172
2019-01-28 23:01:17:117,-0.234253,-0.023346,0.187897,0.110443,3.215988,9.958267
2019-01-28 23:01:17:117,-0.234253,-0.023346,0.187897,1.535370,2.880981,8.735550
2019-01-28 23:01:17:117,-0.234253,-0.023346,0.187897,2.960297,2.597443,6.730362
2019-01-28 23:01:17:117,-0.234253,-0.023346,0.187897,3.127792,2.041107,5.761261
2019-01-28 23:01:17:117,-0.234253,-0.023346,0.187897,2.304657,1.767120,8.340729
2019-01-28 23:01:17:117,-0.234253,-0.023346,0.187897,1.716034,1.927444,10.143723
2019-01-28 23:01:17:117,-0.234253,-0.023346,0.187897,1.503067,2.584274,9.808731
2019-01-28 23:01:17:117,-0.234253,-0.023346,0.187897,1.230286,2.967133,9.922379
2019-01-28 23:01:17:117,-0.234253,-0.023346,0.187897,0.517227,2.766129,11.535141
2019-01-28 23:01:17:117,-0.234253,-0.023346,0.187897,0.550720,2.567520,13.334549
2019-01-28 23:01:17:117,0.150589,-0.011322,-0.153946,0.550720,2.567520,13.334549
2019-01-28 23:01:17:117,0.150589,-0.011322,-0.153946,1.014923,2.811600,14.729568
2019-01-28 23:01:17:117,0.150589,-0.011322,-0.153946,0.901260,2.705109,13.499649
2019-01-28 23:01:17:117,0.150589,-0.011322,-0.153946,1.114227,2.547195,10.714401
2019-01-28 23:01:17:117,0.150589,-0.011322,-0.153946,2.049820,1.909500,7.679108
2019-01-28 23:01:17:117,0.150589,-0.011322,-0.153946,2.984222,1.245483,5.979004
2019-01-28 23:01:17:117,0.150589,-0.011322,-0.153946,2.983032,0.527649,7.498459
2019-01-28 23:01:17:117,0.150589,-0.011322,-0.153946,2.728195,-0.258408,9.301453
2019-01-28 23:01:17:117,0.150589,-0.011322,-0.153946,1.808151,-0.086121,9.512009
2019-01-28 23:01:17:117,0.150589,-0.011322,-0.153946,1.217117,1.302917,8.246216
2019-01-28 23:01:17:117,0.150589,-0.011322,-0.153946,0.165482,3.188461,6.625076
2019-01-28 23:01:17:117,0.150589,-0.011322,-0.153946,-0.307114,3.954163,7.255585
2019-01-28 23:01:17:117,0.150589,-0.011322,-0.153946,-0.534424,3.882385,9.400757
2019-01-28 23:01:17:117,0.150589,-0.011322,-0.153946,-0.214996,3.281784,11.811523
2019-01-28 23:01:17:117,0.150589,-0.011322,-0.153946,0.263580,2.406006,12.888290
2019-01-28 23:01:17:117,0.150589,-0.011322,-0.153946,0.562683,2.044693,12.804535
2019-01-28 23:01:17:117,0.150589,-0.011322,-0.153946,0.679932,2.336609,11.165451
2019-01-28 23:01:17:117,0.150589,-0.011322,-0.153946,0.973053,2.884583,9.373230
2019-01-28 23:01:17:117,0.150589,-0.011322,-0.153946,1.566467,2.438324,8.674530
2019-01-28 23:01:17:117,0.150589,-0.011322,-0.153946,2.360901,1.702515,9.295471
2019-01-28 23:01:17:117,-0.426849,-0.140823,0.170532,2.360901,1.702515,9.295471
2019-01-28 23:01:17:117,-0.426849,-0.140823,0.170532,3.251022,1.024155,9.740540
2019-01-28 23:01:17:117,-0.426849,-0.140823,0.170532,4.090897,0.193848,10.120987
2019-01-28 23:01:17:117,-0.426849,-0.140823,0.170532,3.787018,0.229736,10.332748
2019-01-28 23:01:17:117,-0.426849,-0.140823,0.170532,1.790207,2.014786,10.923782
2019-01-28 23:01:17:117,-0.426849,-0.140823,0.170532,0.489700,3.750778,10.351898
2019-01-28 23:01:17:117,-0.426849,-0.140823,0.170532,1.444443,3.857254,8.376617
2019-01-28 23:01:17:117,-0.426849,-0.140823,0.170532,1.267365,2.603424,8.806137
2019-01-28 23:01:17:117,-0.426849,-0.140823,0.170532,0.928787,2.586670,10.064758
2019-01-28 23:01:17:117,-0.426849,-0.140823,0.170532,0.543549,2.837921,10.514603
2019-01-28 23:01:17:117,0.322922,0.128937,-0.459854,0.543549,2.837921,10.514603
2019-01-28 23:01:17:117,0.322922,0.128937,-0.459854,1.063980,2.313889,9.234451
2019-01-28 23:01:17:117,0.322922,0.128937,-0.459854,0.780426,2.012390,7.759277
2019-01-28 23:01:17:117,0.322922,0.128937,-0.459854,-0.291565,2.500534,7.493668
2019-01-28 23:01:17:117,0.322922,0.128937,-0.459854,-0.583481,2.620163,7.116791
2019-01-28 23:01:17:117,0.322922,0.128937,-0.459854,-0.274811,2.252869,6.264954
2019-01-28 23:01:18:118,0.322922,0.128937,-0.459854,-0.660065,2.106903,5.792374
2019-01-28 23:01:18:118,0.322922,0.128937,-0.459854,-1.007019,2.080582,6.150101
2019-01-28 23:01:18:118,0.322922,0.128937,-0.459854,-0.102524,1.655853,6.805725
2019-01-28 23:01:18:118,0.322922,0.128937,-0.459854,1.029282,1.424957,6.791382
2019-01-28 23:01:18:118,-0.128082,0.316895,0.126007,1.029282,1.424957,6.791382
2019-01-28 23:01:18:118,-0.128082,0.316895,0.126007,1.113037,1.584076,5.685898
2019-01-28 23:01:18:118,-0.128082,0.316895,0.126007,0.614136,1.527847,5.992172
2019-01-28 23:01:18:118,-0.128082,0.316895,0.126007,0.559097,1.123459,8.320389
2019-01-28 23:01:18:118,-0.128082,0.316895,0.126007,0.996979,0.185471,11.661972
2019-01-28 23:01:18:118,-0.128082,0.316895,0.126007,1.355896,-0.630493,15.258377
2019-01-28 23:01:18:118,-0.128082,0.316895,0.126007,1.316422,0.046692,17.250412
2019-01-28 23:01:18:118,-0.128082,0.316895,0.126007,0.468170,1.246689,15.758484
2019-01-28 23:01:18:118,-0.128082,0.316895,0.126007,-0.419571,2.194244,14.115799
2019-01-28 23:01:18:118,-0.128082,0.316895,0.126007,-1.052475,2.410797,13.736542
2019-01-28 23:01:18:118,-0.128082,0.316895,0.126007,-0.551178,1.880783,14.272537
2019-01-28 23:01:18:118,-0.997757,-0.010223,0.299484,-0.551178,1.880783,14.272537
2019-01-28 23:01:18:118,-0.997757,-0.010223,0.299484,0.569870,0.466629,14.350296
2019-01-28 23:01:18:118,-0.997757,-0.010223,0.299484,1.602371,-0.941559,13.220886
2019-01-28 23:01:18:118,-0.997757,-0.010223,0.299484,1.187210,-1.082733,11.622482
2019-01-28 23:01:18:118,-0.997757,-0.010223,0.299484,0.922806,-0.315826,9.583801
2019-01-28 23:01:18:118,-0.997757,-0.010223,0.299484,1.614334,0.108902,7.021088
2019-01-28 23:01:18:118,-0.997757,-0.010223,0.299484,1.568863,0.507309,5.325775
2019-01-28 23:01:18:118,-0.997757,-0.010223,0.299484,0.953918,1.001419,4.985992
2019-01-28 23:01:18:118,-0.997757,-0.010223,0.299484,0.646439,1.496735,5.044617
2019-01-28 23:01:18:118,-0.997757,-0.010223,0.299484,0.977844,1.830536,4.926178
2019-01-28 23:01:18:118,0.953079,-0.325104,-0.225891,0.977844,1.830536,4.926178
2019-01-28 23:01:18:118,0.953079,-0.325104,-0.225891,1.599976,1.846085,5.018295
2019-01-28 23:01:18:118,0.953079,-0.325104,-0.225891,1.666977,1.671417,5.885696
2019-01-28 23:01:18:118,0.953079,-0.325104,-0.225891,1.505463,1.702530,7.353683
2019-01-28 23:01:18:118,0.953079,-0.325104,-0.225891,2.509247,1.277786,9.295471
2019-01-28 23:01:18:118,0.953079,-0.325104,-0.225891,1.998383,1.025360,11.769638
2019-01-28 23:01:18:118,0.953079,-0.325104,-0.225891,1.230286,1.330444,13.263962
2019-01-28 23:01:18:118,0.953079,-0.325104,-0.225891,0.784027,1.703720,13.342926
2019-01-28 23:01:18:118,0.953079,-0.325104,-0.225891,0.484909,1.935822,12.440826
2019-01-28 23:01:18:118,0.953079,-0.325104,-0.225891,0.305450,1.981277,11.288681
2019-01-28 23:01:18:118,0.953079,-0.325104,-0.225891,0.382034,1.871216,10.402145
2019-01-28 23:01:18:118,-0.515167,-0.188034,-0.246979,0.382034,1.871216,10.402145
2019-01-28 23:01:18:118,-0.515167,-0.188034,-0.246979,1.340363,1.268219,10.439240
2019-01-28 23:01:18:118,-0.515167,-0.188034,-0.246979,1.116623,0.581482,10.696457
2019-01-28 23:01:18:118,-0.515167,-0.188034,-0.246979,1.162094,0.234528,11.221680
2019-01-28 23:01:18:118,-0.515167,-0.188034,-0.246979,0.977844,1.033722,10.594757
2019-01-28 23:01:18:118,-0.515167,-0.188034,-0.246979,1.375046,1.538620,9.848206
2019-01-28 23:01:18:118,-0.515167,-0.188034,-0.246979,1.158508,1.933426,9.669937
2019-01-28 23:01:18:118,-0.515167,-0.188034,-0.246979,0.980225,1.429733,9.826675
2019-01-28 23:01:18:118,-0.515167,-0.188034,-0.246979,1.046036,0.710693,10.643829
2019-01-28 23:01:18:118,-0.515167,-0.188034,-0.246979,0.834274,0.631729,10.588776
2019-01-28 23:01:18:118,0.303055,0.123795,0.042389,0.834274,0.631729,10.588776
2019-01-28 23:01:18:118,0.303055,0.123795,0.042389,1.327194,1.172516,9.369644
2019-01-28 23:01:18:118,0.303055,0.123795,0.042389,1.446838,1.743195,8.002151
2019-01-28 23:01:18:118,0.303055,0.123795,0.042389,0.738556,2.787674,7.022278
2019-01-28 23:01:18:118,0.303055,0.123795,0.042389,0.484924,3.387070,6.834442
2019-01-28 23:01:18:118,0.303055,0.123795,0.042389,1.421707,2.596237,7.514008
2019-01-28 23:01:18:118,0.303055,0.123795,0.042389,1.327194,1.008606,9.193771
2019-01-28 23:01:18:118,0.303055,0.123795,0.042389,0.929977,0.386475,10.311218
2019-01-28 23:01:18:118,0.303055,0.123795,0.042389,1.779434,0.857849,9.812317
2019-01-28 23:01:18:118,0.303055,0.123795,0.042389,2.924408,1.334015,8.072723
2019-01-28 23:01:18:118,0.303055,0.123795,0.042389,1.956512,1.611603,7.229263
2019-01-28 23:01:19:119,-0.445663,0.176453,0.171707,1.956512,1.611603,7.229263
2019-01-28 23:01:19:119,-0.445663,0.176453,0.171707,-0.171921,2.362930,8.861160
2019-01-28 23:01:19:119,-0.445663,0.176453,0.171707,-0.449478,2.627350,10.540924
2019-01-28 23:01:19:119,-0.445663,0.176453,0.171707,1.095093,1.005020,11.994568
2019-01-28 23:01:19:119,-0.445663,0.176453,0.171707,1.133377,-0.384033,13.144318
2019-01-28 23:01:19:119,-0.445663,0.176453,0.171707,0.508850,0.076599,13.155090
2019-01-28 23:01:19:119,-0.445663,0.176453,0.171707,0.897690,0.838715,11.405930
2019-01-28 23:01:19:119,-0.445663,0.176453,0.171707,1.080734,1.142593,9.653198
2019-01-28 23:01:19:119,-0.445663,0.176453,0.171707,0.118820,2.012390,8.569244
2019-01-28 23:01:19:119,-0.445663,0.176453,0.171707,0.009949,2.635727,8.189972
2019-01-28 23:01:19:119,0.371353,0.250854,-0.012222,0.009949,2.635727,8.189972
2019-01-28 23:01:19:119,0.371353,0.250854,-0.012222,1.138168,1.832932,8.394562
2019-01-28 23:01:19:119,0.371353,0.250854,-0.012222,1.358292,0.735825,8.761871
2019-01-28 23:01:19:119,0.371353,0.250854,-0.012222,0.604553,0.427139,9.173431
2019-01-28 23:01:19:119,0.371353,0.250854,-0.012222,0.687119,0.765732,9.075317
2019-01-28 23:01:19:119,0.371353,0.250854,-0.012222,1.290100,0.944000,8.155289
2019-01-28 23:01:19:119,0.371353,0.250854,-0.012222,1.121414,1.219162,7.205338
2019-01-28 23:01:19:119,0.371353,0.250854,-0.012222,0.169067,1.801819,6.650192
2019-01-28 23:01:19:119,0.371353,0.250854,-0.012222,0.200165,1.622360,6.936142
2019-01-28 23:01:19:119,0.371353,0.250854,-0.012222,0.734970,1.162933,7.431458
2019-01-28 23:01:19:119,-0.398621,0.065659,-0.221313,0.734970,1.162933,7.431458
2019-01-28 23:01:19:119,-0.398621,0.065659,-0.221313,0.256409,1.222763,7.918396
2019-01-28 23:01:19:119,-0.398621,0.065659,-0.221313,0.191803,1.696533,7.936340
2019-01-28 23:01:19:119,-0.398621,0.065659,-0.221313,0.331787,2.014786,7.792770
2019-01-28 23:01:19:119,-0.398621,0.065659,-0.221313,0.191803,1.777893,8.524979
2019-01-28 23:01:19:119,-0.398621,0.065659,-0.221313,0.041046,1.119873,10.325577
2019-01-28 23:01:19:119,-0.398621,0.065659,-0.221313,0.154709,0.382874,12.392975
2019-01-28 23:01:19:119,-0.398621,0.065659,-0.221313,0.160690,0.262039,13.448212
2019-01-28 23:01:19:119,-0.398621,0.065659,-0.221313,0.164276,0.423553,13.000748
2019-01-28 23:01:19:119,-0.398621,0.065659,-0.221313,-0.134827,0.938019,12.101044
2019-01-28 23:01:19:119,-0.398621,0.065659,-0.221313,-0.505722,1.581680,11.476517
2019-01-28 23:01:19:119,-0.159958,0.000900,-0.233292,-0.505722,1.581680,11.476517
2019-01-28 23:01:19:119,-0.159958,0.000900,-0.233292,-0.022369,1.106705,11.463364
2019-01-28 23:01:19:119,-0.159958,0.000900,-0.233292,0.782822,-0.326599,12.091476
2019-01-28 23:01:19:119,-0.159958,0.000900,-0.233292,0.803162,-1.298080,12.208725
2019-01-28 23:01:19:119,-0.159958,0.000900,-0.233292,0.912033,-1.195190,11.331757
2019-01-28 23:01:19:119,-0.159958,0.000900,-0.233292,0.890503,-0.466583,9.933151
2019-01-28 23:01:19:119,-0.159958,0.000900,-0.233292,0.328186,0.418777,8.465164
2019-01-28 23:01:19:119,-0.159958,0.000900,-0.233292,-0.058258,1.128235,7.059372
2019-01-28 23:01:19:119,-0.159958,0.000900,-0.233292,0.081726,1.087555,6.762665
2019-01-28 23:01:19:119,-0.159958,0.000900,-0.233292,-0.039124,0.603012,7.566650
2019-01-28 23:01:19:119,-0.173401,-0.101471,-0.160782,-0.039124,0.603012,7.566650
2019-01-28 23:01:19:119,-0.173401,-0.101471,-0.160782,0.063782,-0.032288,9.019089
2019-01-28 23:01:19:119,-0.173401,-0.101471,-0.160782,0.562683,-1.351929,10.490677
2019-01-28 23:01:19:119,-0.173401,-0.101471,-0.160782,0.694290,-2.465775,12.113007
2019-01-28 23:01:19:119,-0.173401,-0.101471,-0.160782,0.524399,-2.020721,12.370239
2019-01-28 23:01:19:119,-0.173401,-0.101471,-0.160782,0.055405,-0.321823,10.690475
2019-01-28 23:01:19:119,-0.173401,-0.101471,-0.160782,-0.140808,0.642502,8.749893
2019-01-28 23:01:19:119,-0.173401,-0.101471,-0.160782,0.271957,0.362534,8.160080
2019-01-28 23:01:19:119,-0.173401,-0.101471,-0.160782,0.489700,-0.553925,8.308426
2019-01-28 23:01:19:119,-0.173401,-0.101471,-0.160782,0.895294,-1.243057,8.886292
2019-01-28 23:01:19:119,-0.173401,-0.101471,-0.160782,0.971863,-1.551727,9.486893
2019-01-28 23:01:20:120,0.080765,-0.111740,-0.061951,0.971863,-1.551727,9.486893
2019-01-28 23:01:20:120,0.080765,-0.111740,-0.061951,0.270752,-0.994202,9.135147
2019-01-28 23:01:20:120,0.080765,-0.111740,-0.061951,-0.347794,-0.236877,8.652985
2019-01-28 23:01:20:120,0.080765,-0.111740,-0.061951,-0.262848,0.171112,8.870743
2019-01-28 23:01:20:120,0.080765,-0.111740,-0.061951,0.079330,0.011993,8.788193
2019-01-28 23:01:20:120,0.080765,-0.111740,-0.061951,0.416718,-0.786026,9.841019
2019-01-28 23:01:20:120,0.080765,-0.111740,-0.061951,0.561493,-1.197586,10.721588
2019-01-28 23:01:20:120,0.080765,-0.111740,-0.061951,0.774445,-0.830292,10.513412
2019-01-28 23:01:20:120,0.080765,-0.111740,-0.061951,0.864182,-0.295502,9.305038
2019-01-28 23:01:20:120,0.080765,-0.111740,-0.061951,0.957504,-0.199783,8.742722
2019-01-28 23:01:20:120,0.080765,-0.111740,-0.061951,0.939560,-0.252426,9.766846
2019-01-28 23:01:20:120,0.080765,-0.111740,-0.061951,0.929977,-0.124405,10.405731
2019-01-28 23:01:20:120,0.080765,-0.111740,-0.061951,0.968277,-0.327805,10.656982
2019-01-28 23:01:20:120,0.080765,-0.111740,-0.061951,0.549530,-0.350525,10.688080
2019-01-28 23:01:20:120,0.080765,-0.111740,-0.061951,0.490906,0.084976,10.434448
2019-01-28 23:01:20:120,0.080765,-0.111740,-0.061951,0.640442,0.320663,10.154480
2019-01-28 23:01:20:120,0.080765,-0.111740,-0.061951,0.343735,0.040710,10.526566
2019-01-28 23:01:20:120,-0.158569,-0.073181,-0.083328,0.343735,0.040710,10.526566
2019-01-28 23:01:20:120,-0.158569,-0.073181,-0.083328,-0.012802,-0.299088,11.379608
2019-01-28 23:01:20:120,-0.158569,-0.073181,-0.083328,0.425095,-0.337372,11.571045
2019-01-28 23:01:20:120,-0.158569,-0.073181,-0.083328,1.080734,-0.780045,10.624680
2019-01-28 23:01:20:120,-0.158569,-0.073181,-0.083328,0.888107,-1.277756,9.435440
2019-01-28 23:01:20:120,-0.158569,-0.073181,-0.083328,0.439453,-1.182037,9.035843
2019-01-28 23:01:20:120,-0.158569,-0.073181,-0.083328,0.879730,-0.905670,7.837036
2019-01-28 23:01:20:120,-0.158569,-0.073181,-0.083328,1.422913,-0.947540,7.776016
2019-01-28 23:01:20:120,-0.158569,-0.073181,-0.083328,1.145340,-1.645050,9.575424
2019-01-28 23:01:20:120,-0.158569,-0.073181,-0.083328,0.450226,-1.930984,11.024277
2019-01-28 23:01:20:120,-0.158569,-0.073181,-0.083328,0.507645,-1.255020,10.611511
2019-01-28 23:01:20:120,0.232269,0.071701,-0.130295,0.507645,-1.255020,10.611511
2019-01-28 23:01:20:120,0.232269,0.071701,-0.130295,0.888107,-0.515640,9.738144
2019-01-28 23:01:20:120,0.232269,0.071701,-0.130295,0.567474,0.075394,9.386398
2019-01-28 23:01:20:120,0.232269,0.071701,-0.130295,-0.100128,0.551575,9.987000
2019-01-28 23:01:20:120,0.232269,0.071701,-0.130295,-0.136017,0.796829,10.989578
2019-01-28 23:01:20:120,0.232269,0.071701,-0.130295,0.176239,0.874603,10.788589
2019-01-28 23:01:20:120,0.232269,0.071701,-0.130295,0.096085,0.692749,10.505035
2019-01-28 23:01:20:120,0.232269,0.071701,-0.130295,0.194199,0.439102,10.195160
2019-01-28 23:01:20:120,0.232269,0.071701,-0.130295,0.568665,0.039505,10.137741
2019-01-28 23:01:20:120,0.232269,0.071701,-0.130295,0.708649,-0.360107,10.130554
2019-01-28 23:01:20:120,0.232269,0.071701,-0.130295,0.565079,-0.455811,11.179810
2019-01-28 23:01:20:120,-0.209503,0.021118,0.207443,0.565079,-0.455811,11.179810
2019-01-28 23:01:20:120,-0.209503,0.021118,0.207443,0.575851,-0.325409,11.026672
2019-01-28 23:01:20:120,-0.209503,0.021118,0.207443,1.513824,-0.613739,10.088684
2019-01-28 23:01:20:120,-0.209503,0.021118,0.207443,1.655014,-0.899689,9.535950
2019-01-28 23:01:20:120,-0.209503,0.021118,0.207443,1.482727,-0.697495,8.626663
2019-01-28 23:01:20:120,-0.209503,0.021118,0.207443,1.306854,-0.132782,7.638443
2019-01-28 23:01:20:120,-0.209503,0.021118,0.207443,1.312836,0.431931,6.509018
2019-01-28 23:01:20:120,-0.209503,0.021118,0.207443,1.286514,0.702316,5.681107
2019-01-28 23:01:20:120,-0.209503,0.021118,0.207443,0.573456,0.635330,6.329559
2019-01-28 23:01:20:120,-0.209503,0.021118,0.207443,-0.047485,0.379288,8.316803
2019-01-28 23:01:20:120,-0.209503,0.021118,0.207443,0.141541,-0.127991,10.106628
2019-01-28 23:01:20:120,0.429886,0.087952,-0.045273,0.141541,-0.127991,10.106628
2019-01-28 23:01:20:120,0.429886,0.087952,-0.045273,0.240845,-0.083740,11.159470
2019-01-28 23:01:20:120,0.429886,0.087952,-0.045273,0.082932,0.603012,10.637848
2019-01-28 23:01:20:120,0.429886,0.087952,-0.045273,-0.073822,1.351974,10.325577
2019-01-28 23:01:20:120,0.429886,0.087952,-0.045273,-0.035538,1.785080,10.473938
2019-01-28 23:01:20:120,0.429886,0.087952,-0.045273,0.151123,1.807800,11.062561
2019-01-28 23:01:20:120,0.429886,0.087952,-0.045273,0.762482,1.283783,11.573425
2019-01-28 23:01:20:120,0.429886,0.087952,-0.045273,1.182419,0.734619,12.067551
2019-01-28 23:01:20:120,0.429886,0.087952,-0.045273,1.243439,0.254852,12.098648
2019-01-28 23:01:20:120,0.429886,0.087952,-0.045273,1.257797,0.207001,11.559082
2019-01-28 23:01:20:120,0.429886,0.087952,-0.045273,0.977844,0.795639,10.351898
2019-01-28 23:01:20:120,0.175888,-0.037399,0.002502,0.977844,0.795639,10.351898
2019-01-28 23:01:20:120,0.175888,-0.037399,0.002502,0.452621,1.564941,9.409119
2019-01-28 23:01:20:120,0.175888,-0.037399,0.002502,0.088898,2.270813,8.593170
2019-01-28 23:01:20:120,0.175888,-0.037399,0.002502,0.191788,2.152374,8.380219
2019-01-28 23:01:21:121,0.175888,-0.037399,0.002502,0.702667,1.068420,9.263153
2019-01-28 23:01:21:121,0.175888,-0.037399,0.002502,1.022110,0.119675,9.861374
2019-01-28 23:01:21:121,0.175888,-0.037399,0.002502,1.063980,0.138809,9.726166
2019-01-28 23:01:21:121,0.175888,-0.037399,0.002502,1.412140,0.771713,8.583603
2019-01-28 23:01:21:121,0.175888,-0.037399,0.002502,1.400177,1.323257,6.954086
2019-01-28 23:01:21:121,0.175888,-0.037399,0.002502,0.635666,1.755157,6.504242
2019-01-28 23:01:21:121,0.175888,-0.037399,0.002502,-0.138412,2.057846,7.073730
2019-01-28 23:01:21:121,0.230240,0.067841,-0.158340,-0.138412,2.057846,7.073730
2019-01-28 23:01:21:121,0.230240,0.067841,-0.158340,0.153519,1.734818,8.000946
2019-01-28 23:01:21:121,0.230240,0.067841,-0.158340,0.592606,1.256256,9.015503
2019-01-28 23:01:21:121,0.230240,0.067841,-0.158340,0.939560,0.629333,9.891281
2019-01-28 23:01:21:121,0.230240,0.067841,-0.158340,0.526794,0.441498,10.868744
2019-01-28 23:01:21:121,0.230240,0.067841,-0.158340,0.292297,0.955963,11.091278
2019-01-28 23:01:21:121,0.230240,0.067841,-0.158340,0.715836,1.265823,10.844818
2019-01-28 23:01:21:121,0.230240,0.067841,-0.158340,0.610550,1.330429,10.459579
2019-01-28 23:01:21:121,0.230240,0.067841,-0.158340,0.219315,1.086365,11.142731
2019-01-28 23:01:21:121,0.230240,0.067841,-0.158340,0.431076,0.780090,11.630859
2019-01-28 23:01:21:121,0.230240,0.067841,-0.158340,0.463379,1.028946,11.173828
2019-01-28 23:01:21:121,-0.322998,-0.032822,-0.228043,0.463379,1.028946,11.173828
2019-01-28 23:01:21:121,-0.322998,-0.032822,-0.228043,0.614136,1.586472,10.283707
2019-01-28 23:01:21:121,-0.322998,-0.032822,-0.228043,0.684723,1.956161,9.671143
2019-01-28 23:01:21:121,-0.322998,-0.032822,-0.228043,0.530380,1.483582,10.160477
2019-01-28 23:01:21:121,-0.322998,-0.032822,-0.228043,0.358093,0.954758,11.527969
2019-01-28 23:01:21:121,-0.322998,-0.032822,-0.228043,0.694290,0.421173,12.098663
2019-01-28 23:01:21:121,-0.322998,-0.032822,-0.228043,0.687103,0.218979,11.488480
2019-01-28 23:01:21:121,-0.322998,-0.032822,-0.228043,0.128387,0.613785,10.077911
2019-01-28 23:01:21:121,-0.322998,-0.032822,-0.228043,-0.076202,1.182083,8.650604
2019-01-28 23:01:21:121,-0.322998,-0.032822,-0.228043,-0.076202,1.665436,7.186188
2019-01-28 23:01:21:121,-0.322998,-0.032822,-0.228043,0.311432,1.793442,6.312820
2019-01-28 23:01:21:121,0.167511,-0.198166,-0.115387,0.311432,1.793442,6.312820
2019-01-28 23:01:21:121,0.167511,-0.198166,-0.115387,0.537552,1.631927,6.311615
2019-01-28 23:01:21:121,0.167511,-0.198166,-0.115387,0.378448,1.215576,7.196960
2019-01-28 23:01:21:121,0.167511,-0.198166,-0.115387,0.861786,0.272812,9.190186
2019-01-28 23:01:21:121,0.167511,-0.198166,-0.115387,1.139359,-0.510849,10.639038
2019-01-28 23:01:21:121,0.167511,-0.198166,-0.115387,0.866577,-0.256012,10.525375
2019-01-28 23:01:21:121,0.167511,-0.198166,-0.115387,0.798386,0.717880,9.490479
2019-01-28 23:01:21:121,0.167511,-0.198166,-0.115387,0.834274,1.525452,8.154083
2019-01-28 23:01:21:121,0.167511,-0.198166,-0.115387,0.586624,2.038712,7.357285
2019-01-28 23:01:21:121,0.167511,-0.198166,-0.115387,0.376038,2.212189,7.297455
2019-01-28 23:01:21:121,0.167511,-0.198166,-0.115387,0.712234,1.576904,8.186386
2019-01-28 23:01:21:121,-0.050247,-0.178314,0.037262,0.712234,1.576904,8.186386
2019-01-28 23:01:21:121,-0.050247,-0.178314,0.037262,1.011337,0.552765,9.529953
2019-01-28 23:01:21:121,-0.050247,-0.178314,0.037262,0.980225,0.104111,10.436844
2019-01-28 23:01:21:121,-0.050247,-0.178314,0.037262,1.354706,0.256058,10.085098
2019-01-28 23:01:21:121,-0.050247,-0.178314,0.037262,1.503067,0.558746,9.220093
2019-01-28 23:01:21:121,-0.050247,-0.178314,0.037262,0.902466,0.805206,8.873123
2019-01-28 23:01:21:121,-0.050247,-0.178314,0.037262,0.163086,1.424957,9.506027
2019-01-28 23:01:21:121,-0.050247,-0.178314,0.037262,0.870163,1.652267,10.068344
2019-01-28 23:01:21:121,-0.050247,-0.178314,0.037262,1.461197,1.340012,10.123383
2019-01-28 23:01:21:121,-0.050247,-0.178314,0.037262,0.842651,0.934418,10.512222
2019-01-28 23:01:21:121,-0.050247,-0.178314,0.037262,0.584213,0.717865,11.636841
2019-01-28 23:01:21:121,-0.217255,-0.117599,0.085876,0.584213,0.717865,11.636841
2019-01-28 23:01:21:121,-0.217255,-0.117599,0.085876,0.898880,0.892548,12.347504
2019-01-28 23:01:21:121,-0.217255,-0.117599,0.085876,1.135773,0.971512,12.321182
2019-01-28 23:01:21:121,-0.217255,-0.117599,0.085876,1.030487,0.996643,12.040039
2019-01-28 23:01:21:121,-0.217255,-0.117599,0.085876,0.872559,0.996643,12.142929
2019-01-28 23:01:22:122,-0.217255,-0.117599,0.085876,1.383423,0.550385,11.822281
2019-01-28 23:01:22:122,-0.217255,-0.117599,0.085876,1.224304,0.451080,10.964462
2019-01-28 23:01:22:122,-0.217255,-0.117599,0.085876,1.232681,0.789658,9.565857
2019-01-28 23:01:22:122,-0.217255,-0.117599,0.085876,1.367874,1.240707,7.813110
2019-01-28 23:01:22:122,-0.217255,-0.117599,0.085876,0.985016,1.649872,6.512604
2019-01-28 23:01:22:122,-0.217255,-0.117599,0.085876,1.153717,1.497925,6.138138
2019-01-28 23:01:22:122,0.556198,0.034927,0.058762,1.153717,1.497925,6.138138
2019-01-28 23:01:22:122,0.556198,0.034927,0.058762,0.992188,0.985870,6.705231
2019-01-28 23:01:22:122,0.556198,0.034927,0.058762,0.328186,0.970322,7.600143
2019-01-28 23:01:22:122,0.556198,0.034927,0.058762,0.702667,1.056458,7.944717
2019-01-28 23:01:22:122,0.556198,0.034927,0.058762,1.559296,1.153366,7.031845
2019-01-28 23:01:22:122,0.556198,0.034927,0.058762,1.445633,1.508698,6.145309
2019-01-28 23:01:22:122,0.556198,0.034927,0.058762,0.809143,1.853271,6.258972
2019-01-28 23:01:22:122,0.556198,0.034927,0.058762,0.380829,1.756363,7.531952
2019-01-28 23:01:22:122,0.556198,0.034927,0.058762,0.474152,1.578094,9.181808
2019-01-28 23:01:22:122,0.556198,0.034927,0.058762,0.767273,1.095932,10.920197
2019-01-28 23:01:22:122,0.556198,0.034927,0.058762,0.579437,0.443893,12.641830
2019-01-28 23:01:22:122,-0.518600,0.094971,-0.021942,0.579437,0.443893,12.641830
2019-01-28 23:01:22:122,-0.518600,0.094971,-0.021942,0.130783,0.294342,13.935150
2019-01-28 23:01:22:122,-0.518600,0.094971,-0.021942,0.011139,0.854263,14.300049
2019-01-28 23:01:22:122,-0.518600,0.094971,-0.021942,0.634476,1.115082,13.451797
2019-01-28 23:01:22:122,-0.518600,0.094971,-0.021942,0.795990,0.833923,12.087891
2019-01-28 23:01:22:122,-0.518600,0.094971,-0.021942,0.620117,0.642502,11.590179
2019-01-28 23:01:22:122,-0.518600,0.094971,-0.021942,1.291306,0.323059,11.687088
2019-01-28 23:01:22:122,-0.518600,0.094971,-0.021942,2.085724,-0.650833,11.701447
2019-01-28 23:01:22:122,-0.518600,0.094971,-0.021942,1.639450,-0.781235,11.396362
2019-01-28 23:01:22:122,-0.518600,0.094971,-0.021942,1.370270,-0.028687,10.646210
2019-01-28 23:01:22:122,-0.518600,0.094971,-0.021942,2.169464,0.445099,8.973633
2019-01-28 23:01:22:122,-0.031998,-0.065002,0.140915,2.169464,0.445099,8.973633
2019-01-28 23:01:22:122,-0.031998,-0.065002,0.140915,1.311630,0.537216,7.618088
2019-01-28 23:01:22:122,-0.031998,-0.065002,0.140915,0.367676,0.806412,7.419495
2019-01-28 23:01:22:122,-0.031998,-0.065002,0.140915,0.510040,1.098328,7.950699
2019-01-28 23:01:22:122,-0.031998,-0.065002,0.140915,0.937164,1.648682,7.950699
2019-01-28 23:01:22:122,-0.031998,-0.065002,0.140915,1.225494,1.964539,7.475723
2019-01-28 23:01:22:122,-0.031998,-0.065002,0.140915,1.002960,1.367523,8.624268
2019-01-28 23:01:22:122,-0.031998,-0.065002,0.140915,0.775650,0.385269,11.839035
2019-01-28 23:01:22:122,-0.031998,-0.065002,0.140915,1.582031,-0.095703,14.877914
2019-01-28 23:01:22:122,-0.031998,-0.065002,0.140915,2.173050,-0.317032,15.269150
2019-01-28 23:01:22:122,-0.031998,-0.065002,0.140915,1.361893,-0.245255,13.330963
2019-01-28 23:01:22:122,-0.276031,0.001266,-0.014603,1.361893,-0.245255,13.330963
2019-01-28 23:01:22:122,-0.276031,0.001266,-0.014603,0.585419,0.135223,11.069748
2019-01-28 23:01:22:122,-0.276031,0.001266,-0.014603,0.763687,0.459457,8.560867
2019-01-28 23:01:22:122,-0.276031,0.001266,-0.014603,1.369064,0.640106,5.434647
2019-01-28 23:01:22:122,-0.276031,0.001266,-0.014603,1.105850,1.052872,2.827667
2019-01-28 23:01:22:122,-0.276031,0.001266,-0.014603,0.439453,1.515884,1.892075
2019-01-28 23:01:22:122,-0.276031,0.001266,-0.014603,0.431076,1.702515,2.591965
2019-01-28 23:01:22:122,-0.276031,0.001266,-0.014603,0.673950,0.770508,4.265747
2019-01-28 23:01:22:122,-0.276031,0.001266,-0.014603,0.943146,-0.594604,7.076126
2019-01-28 23:01:22:122,-0.276031,0.001266,-0.014603,1.281723,-1.065994,9.602936
2019-01-28 23:01:22:122,-0.276031,0.001266,-0.014603,1.781830,-0.360107,10.454788
2019-01-28 23:01:22:122,0.570068,0.305405,-0.302322,1.781830,-0.360107,10.454788
2019-01-28 23:01:22:122,0.570068,0.305405,-0.302322,1.288910,0.764526,10.247803
2019-01-28 23:01:22:122,0.570068,0.305405,-0.302322,0.159500,1.886765,10.472733
2019-01-28 23:01:22:122,0.570068,0.305405,-0.302322,-0.628952,2.307907,11.721786
2019-01-28 23:01:22:122,0.570068,0.305405,-0.302322,-0.248489,1.718079,13.588196
2019-01-28 23:01:22:122,0.570068,0.305405,-0.302322,0.067368,0.809998,14.258179
2019-01-28 23:01:23:123,0.570068,0.305405,-0.302322,-0.052277,0.604218,13.906433
2019-01-28 23:01:23:123,0.570068,0.305405,-0.302322,-0.009201,0.927246,12.385803
2019-01-28 23:01:23:123,0.570068,0.305405,-0.302322,0.429886,0.967926,11.238434
2019-01-28 23:01:23:123,0.570068,0.305405,-0.302322,1.019714,-0.041855,11.310226
2019-01-28 23:01:23:123,0.570068,0.305405,-0.302322,1.336761,-0.628098,12.087891
2019-01-28 23:01:23:123,-0.557877,0.032364,-0.143982,1.336761,-0.628098,12.087891
2019-01-28 23:01:23:123,-0.557877,0.032364,-0.143982,1.682526,-0.149536,12.230255
2019-01-28 23:01:23:123,-0.557877,0.032364,-0.143982,1.749527,0.361343,11.682297
2019-01-28 23:01:23:123,-0.557877,0.032364,-0.143982,0.909653,0.274002,12.037643
2019-01-28 23:01:23:123,-0.557877,0.032364,-0.143982,0.441849,-0.138763,12.672928
2019-01-28 23:01:23:123,-0.557877,0.032364,-0.143982,0.118820,-0.076553,11.697861
2019-01-28 23:01:23:123,-0.557877,0.032364,-0.143982,0.115234,0.540802,9.255981
2019-01-28 23:01:23:123,-0.557877,0.032364,-0.143982,0.539948,0.890167,6.422882
2019-01-28 23:01:23:123,-0.557877,0.032364,-0.143982,0.407150,1.292145,4.278915
2019-01-28 23:01:23:123,-0.557877,0.032364,-0.143982,0.275543,1.397430,3.838623
2019-01-28 23:01:23:123,-0.557877,0.032364,-0.143982,0.275543,1.397430,3.838623
2019-01-28 23:01:23:123,-0.557877,0.032364,-0.143982,0.318619,-0.244049,6.087875
2019-01-28 23:01:23:123,-0.557877,0.032364,-0.143982,-0.461441,-0.392395,8.698456
2019-01-28 23:01:23:123,-0.557877,0.032364,-0.143982,0.170258,-0.550323,10.308823
2019-01-28 23:01:23:123,-0.557877,0.032364,-0.143982,0.677536,-0.457001,10.505035
2019-01-28 23:01:23:123,-0.557877,0.032364,-0.143982,-0.207809,0.210587,9.736938
2019-01-28 23:01:23:123,-0.557877,0.032364,-0.143982,-1.234329,1.072006,9.433044
2019-01-28 23:01:23:123,-0.557877,0.032364,-0.143982,-0.234131,0.806396,9.655579
2019-01-28 23:01:23:123,0.027084,0.131805,-0.258636,-0.234131,0.806396,9.655579
2019-01-28 23:01:23:123,0.027084,0.131805,-0.258636,-0.025955,0.547974,9.380402
2019-01-28 23:01:23:123,0.027084,0.131805,-0.258636,-0.081589,0.616165,9.306824
2019-01-28 23:01:23:123,-0.047928,-0.178101,0.046234,-0.081589,0.616165,9.306824
2019-01-28 23:01:23:123,-0.047928,-0.178101,0.046234,-0.073822,0.944000,8.893478
2019-01-28 23:01:23:123,-0.047928,-0.178101,0.046234,-0.186279,1.104309,8.895859
2019-01-28 23:01:23:123,-0.047928,-0.178101,0.046234,-0.494949,0.906906,9.992966
2019-01-28 23:01:23:123,-0.047928,-0.178101,0.046234,-0.634933,0.233322,11.718201
2019-01-28 23:01:23:123,-0.047928,-0.178101,0.046234,-0.816788,-0.004761,13.514008
2019-01-28 23:01:23:123,-0.047928,-0.178101,0.046234,-0.736618,0.112488,13.837036
2019-01-28 23:01:23:123,-0.047928,-0.178101,0.046234,-0.473419,0.544388,12.114212
2019-01-28 23:01:23:123,-0.047928,-0.178101,0.046234,-0.526047,1.219177,9.581406
2019-01-28 23:01:23:123,-0.047928,-0.178101,0.046234,-0.053467,1.464432,7.486481
2019-01-28 23:01:23:123,-0.160202,-0.236954,0.160950,-0.053467,1.464432,7.486481
2019-01-28 23:01:23:123,-0.160202,-0.236954,0.160950,0.694290,0.805206,6.451599
2019-01-28 23:01:23:123,-0.160202,-0.236954,0.160950,0.527985,-0.029892,6.920593
2019-01-28 23:01:23:123,-0.160202,-0.236954,0.160950,0.073349,-0.257217,8.411316
2019-01-28 23:01:23:123,-0.160202,-0.236954,0.160950,0.470566,-0.055008,9.783600
2019-01-28 23:01:23:123,-0.160202,-0.236954,0.160950,1.023300,-0.083725,10.377014
2019-01-28 23:01:23:123,-0.160202,-0.236954,0.160950,0.383224,-0.271576,10.709625
2019-01-28 23:01:23:123,-0.160202,-0.236954,0.160950,-0.443512,0.078995,11.860580
2019-01-28 23:01:23:123,-0.160202,-0.236954,0.160950,-0.073822,0.777695,12.223083
2019-01-28 23:01:23:123,-0.160202,-0.236954,0.160950,0.969467,0.800430,11.295868
2019-01-28 23:01:23:123,-0.160202,-0.236954,0.160950,0.434677,0.520462,10.595963
2019-01-28 23:01:24:124,0.160004,0.050552,0.034515,0.434677,0.520462,10.595963
2019-01-28 23:01:24:124,0.160004,0.050552,0.034515,-0.392059,0.836319,11.041031
2019-01-28 23:01:24:124,0.160004,0.050552,0.034515,0.516022,0.961945,10.589981
2019-01-28 23:01:24:124,0.160004,0.050552,0.034515,1.311630,0.795639,9.433044
2019-01-28 23:01:24:124,0.160004,0.050552,0.034515,0.642838,0.675995,8.710419
2019-01-28 23:01:24:124,0.160004,0.050552,0.034515,-0.121674,0.778885,8.526169
2019-01-28 23:01:24:124,0.160004,0.050552,0.034515,0.154709,0.734619,8.544113
2019-01-28 23:01:24:124,0.160004,0.050552,0.034515,0.847443,0.366135,8.179214
2019-01-28 23:01:24:124,0.160004,0.050552,0.034515,0.232483,0.318268,8.042816
2019-01-28 23:01:24:124,0.160004,0.050552,0.034515,-0.261658,0.498932,8.789383
2019-01-28 23:01:24:124,0.160004,0.050552,0.034515,0.099670,0.074203,9.740524
2019-01-28 23:01:24:124,0.160004,0.050552,0.034515,0.299484,-0.288315,10.668945
2019-01-28 23:01:24:124,0.160004,0.050552,0.034515,-0.070221,0.029938,11.273132
2019-01-28 23:01:24:124,0.160004,0.050552,0.034515,-0.128845,0.716675,10.709625
2019-01-28 23:01:24:124,0.160004,0.050552,0.034515,-0.145599,1.125854,9.681900
2019-01-28 23:01:24:124,0.160004,0.050552,0.034515,-0.405228,1.016968,9.516800
2019-01-28 23:01:24:124,0.160004,0.050552,0.034515,-0.505722,0.683167,10.082703
2019-01-28 23:01:24:124,0.160004,0.050552,0.034515,0.027893,0.195038,10.471542
2019-01-28 23:01:24:124,0.160004,0.050552,0.034515,0.240860,-0.131577,10.148514
2019-01-28 23:01:24:124,0.160004,0.050552,0.034515,0.216919,-0.337372,9.673538
2019-01-28 23:01:24:124,-0.039383,0.095825,-0.053574,0.216919,-0.337372,9.673538
2019-01-28 23:01:25:125,-0.039383,0.095825,-0.053574,0.033875,-0.264389,9.301453
2019-01-28 23:01:25:125,-0.039383,0.095825,-0.053574,-0.421967,0.260849,8.856384
2019-01-28 23:01:25:125,-0.039383,0.095825,-0.053574,-0.258057,0.699936,8.864761
2019-01-28 23:01:25:125,-0.039383,0.095825,-0.053574,-0.098938,0.698730,9.263153
2019-01-28 23:01:25:125,-0.039383,0.095825,-0.053574,-0.485382,0.778885,9.880508
2019-01-28 23:01:25:125,-0.039383,0.095825,-0.053574,-0.433929,0.418762,11.025467
2019-01-28 23:01:25:125,-0.039383,0.095825,-0.053574,0.102066,-0.398392,12.252991
2019-01-28 23:01:25:125,-0.039383,0.095825,-0.053574,-0.064240,-0.646042,12.811722
2019-01-28 23:01:25:125,-0.039383,0.095825,-0.053574,-0.357361,0.320663,12.017303
2019-01-28 23:01:25:125,-0.118484,-0.063843,-0.032318,-0.357361,0.320663,12.017303
2019-01-28 23:01:25:125,-0.118484,-0.063843,-0.032318,-0.555969,1.351974,10.043228
2019-01-28 23:01:25:125,-0.118484,-0.063843,-0.032318,-0.155167,0.866226,8.831253
2019-01-28 23:01:25:125,-0.118484,-0.063843,-0.032318,-0.402832,0.196243,8.777420
2019-01-28 23:01:25:125,-0.118484,-0.063843,-0.032318,-0.357361,0.342194,9.519196
2019-01-28 23:01:25:125,-0.118484,-0.063843,-0.032318,0.420319,0.376892,9.136337
2019-01-28 23:01:25:125,-0.118484,-0.063843,-0.032318,0.372452,0.398438,8.201950
2019-01-28 23:01:25:125,-0.118484,-0.063843,-0.032318,-0.358566,0.588669,8.027267
2019-01-28 23:01:25:125,-0.118484,-0.063843,-0.032318,-0.175507,0.130432,8.790588
2019-01-28 23:01:25:125,-0.118484,-0.063843,-0.032318,0.009949,-0.325409,9.106430
2019-01-28 23:01:25:125,-0.118484,-0.063843,-0.032318,-0.511703,-0.072968,8.660172
2019-01-28 23:01:25:125,0.376114,0.168640,-0.030853,-0.511703,-0.072968,8.660172
2019-01-28 23:01:25:125,0.376114,0.168640,-0.030853,-0.698349,0.553955,7.613312
2019-01-28 23:01:25:125,0.376114,0.168640,-0.030853,-0.168320,0.960739,6.305634
2019-01-28 23:01:25:125,0.376114,0.168640,-0.030853,0.248032,0.832733,5.660767
2019-01-28 23:01:25:125,0.376114,0.168640,-0.030853,-0.131241,0.317078,6.159668
2019-01-28 23:01:25:125,0.376114,0.168640,-0.030853,-1.054871,0.252472,7.904037
2019-01-28 23:01:25:125,0.376114,0.168640,-0.030853,-1.181686,0.002411,10.077911
2019-01-28 23:01:25:125,0.376114,0.168640,-0.030853,-1.428146,-0.296692,12.293671
2019-01-28 23:01:25:125,0.376114,0.168640,-0.030853,-2.063446,-0.114838,13.454193
2019-01-28 23:01:25:125,0.376114,0.168640,-0.030853,-2.166336,-0.081329,14.124176
2019-01-28 23:01:25:125,-0.524643,0.034805,0.084656,-2.166336,-0.081329,14.124176
2019-01-28 23:01:25:125,-0.524643,0.034805,0.084656,-1.720078,0.027542,13.972229
2019-01-28 23:01:25:125,-0.524643,0.034805,0.084656,-1.600433,0.788467,13.340530
2019-01-28 23:01:25:125,-0.524643,0.034805,0.084656,-1.003418,1.287369,12.196762
2019-01-28 23:01:25:125,-0.524643,0.034805,0.084656,-0.322662,1.235916,11.091278
2019-01-28 23:01:25:125,-0.524643,0.034805,0.084656,0.076950,0.336212,11.195374
2019-01-28 23:01:25:125,-0.524643,0.034805,0.084656,0.769669,-1.031281,13.006729
2019-01-28 23:01:25:125,-0.524643,0.034805,0.084656,1.069962,-2.212143,14.735550
2019-01-28 23:01:25:125,-0.524643,0.034805,0.084656,0.609344,-1.944153,13.900452
2019-01-28 23:01:25:125,-0.524643,0.034805,0.084656,0.030289,-0.328995,11.244415
2019-01-28 23:01:25:125,-0.524643,0.034805,0.084656,-0.467422,1.172501,7.639633
2019-01-28 23:01:25:125,0.463303,-0.137085,0.247635,-0.467422,1.172501,7.639633
2019-01-28 23:01:25:125,0.463303,-0.137085,0.247635,-0.663651,1.818573,4.689285
2019-01-28 23:01:25:125,0.463303,-0.137085,0.247635,-0.438721,1.832932,3.789581
2019-01-28 23:01:25:125,0.463303,-0.137085,0.247635,0.191788,1.334015,4.099457
2019-01-28 23:01:25:125,0.463303,-0.137085,0.247635,0.785217,0.521667,4.808929
2019-01-28 23:01:25:125,0.463303,-0.137085,0.247635,0.903656,-0.386414,5.663162
2019-01-28 23:01:25:125,0.463303,-0.137085,0.247635,0.794785,-1.391403,7.384796
2019-01-28 23:01:25:125,0.463303,-0.137085,0.247635,0.679932,-1.316040,8.944916
2019-01-28 23:01:25:125,0.463303,-0.137085,0.247635,0.355698,-0.813538,9.955887
2019-01-28 23:01:25:125,0.463303,-0.137085,0.247635,-0.229340,-0.258408,10.310013
2019-01-28 23:01:25:125,-0.312012,0.215439,-0.051010,-0.229340,-0.258408,10.310013
2019-01-28 23:01:25:125,-0.312012,0.215439,-0.051010,-1.010605,0.533630,10.548111
2019-01-28 23:01:25:125,-0.312012,0.215439,-0.051010,-1.218781,1.270615,10.762268
2019-01-28 23:01:25:125,-0.312012,0.215439,-0.051010,-1.102722,1.355560,10.901047
2019-01-28 23:01:25:125,-0.312012,0.215439,-0.051010,-0.880188,1.051666,11.574631
2019-01-28 23:01:25:125,-0.312012,0.215439,-0.051010,-0.488968,0.313477,12.605942
2019-01-28 23:01:25:125,-0.312012,0.215439,-0.051010,-0.149185,-0.577850,13.819092
2019-01-28 23:01:25:125,-0.312012,0.215439,-0.051010,0.128387,-1.202377,14.016495
2019-01-28 23:01:25:125,-0.312012,0.215439,-0.051010,-0.143204,-0.308655,12.798553
2019-01-28 23:01:25:125,-0.312012,0.215439,-0.051010,-0.418381,0.867416,10.604340
2019-01-28 23:01:25:125,-0.312012,0.215439,-0.051010,-0.370529,0.771713,8.548904
2019-01-28 23:01:25:125,0.076920,0.085007,-0.127487,-0.370529,0.771713,8.548904
2019-01-28 23:01:25:125,0.076920,0.085007,-0.127487,-0.911301,0.053864,8.666153
2019-01-28 23:01:25:125,0.076920,0.085007,-0.127487,-0.901733,-0.276352,10.257385
2019-01-28 23:01:25:125,0.076920,0.085007,-0.127487,-0.266434,-0.189011,10.161667
2019-01-28 23:01:25:125,0.076920,0.085007,-0.127487,-0.595444,0.654465,8.661362
2019-01-28 23:01:25:125,0.076920,0.085007,-0.127487,-0.707901,1.405807,7.688690
2019-01-28 23:01:25:125,0.076920,0.085007,-0.127487,-0.504517,0.740616,7.975830
2019-01-28 23:01:25:125,0.076920,0.085007,-0.127487,-0.777298,-0.156708,10.339935
2019-01-28 23:01:25:125,0.076920,0.085007,-0.127487,-0.345398,-0.549133,12.266144
2019-01-28 23:01:25:125,0.076920,0.085007,-0.127487,0.185806,-0.533585,10.683304
2019-01-28 23:01:25:125,0.355362,0.029556,-0.147827,0.185806,-0.533585,10.683304
2019-01-28 23:01:25:125,0.355362,0.029556,-0.147827,-0.089371,0.073013,8.217499
2019-01-28 23:01:25:125,0.355362,0.029556,-0.147827,-0.407608,0.738205,6.282898
2019-01-28 23:01:25:125,0.355362,0.029556,-0.147827,-0.078598,1.257462,5.382004
2019-01-28 23:01:25:125,0.355362,0.029556,-0.147827,0.368866,1.334015,5.165451
2019-01-28 23:01:25:125,0.355362,0.029556,-0.147827,-0.473419,0.806396,6.266144
2019-01-28 23:01:25:125,0.355362,0.029556,-0.147827,-1.296539,0.073013,8.948502
2019-01-28 23:01:25:125,0.355362,0.029556,-0.147827,-1.141006,-0.575455,11.752899
2019-01-28 23:01:25:125,0.355362,0.029556,-0.147827,-0.648087,-0.964294,13.329758
2019-01-28 23:01:25:125,0.355362,0.029556,-0.147827,-0.588272,-0.269180,12.306839
2019-01-28 23:01:25:125,0.355362,0.029556,-0.147827,-0.731842,0.748978,11.146317
2019-01-28 23:01:25:125,-0.430695,-0.100311,0.014053,-0.731842,0.748978,11.146317
2019-01-28 23:01:25:125,-0.430695,-0.100311,0.014053,-1.008209,0.855469,10.951294
2019-01-28 23:01:25:125,-0.430695,-0.100311,0.014053,-1.401825,0.656860,11.708618
2019-01-28 23:01:25:125,-0.430695,-0.100311,0.014053,-1.033340,0.520462,12.346313
2019-01-28 23:01:25:125,-0.430695,-0.100311,0.014053,-0.223358,0.189056,11.732559
2019-01-28 23:01:25:125,-0.430695,-0.100311,0.014053,0.151123,-0.211746,10.762268
2019-01-28 23:01:25:125,-0.430695,-0.100311,0.014053,-0.066635,0.318268,10.662964
2019-01-28 23:01:25:125,-0.430695,-0.100311,0.014053,-0.022369,0.909302,10.019287
2019-01-28 23:01:25:125,-0.430695,-0.100311,0.014053,-0.030746,0.539612,9.632843
2019-01-28 23:01:25:125,-0.430695,-0.100311,0.014053,-0.539215,0.278793,10.381805
2019-01-28 23:01:26:126,0.490295,-0.147293,0.026749,-0.539215,0.278793,10.381805
2019-01-28 23:01:26:126,0.490295,-0.147293,0.026749,-0.259247,0.484573,10.004944
2019-01-28 23:01:26:126,0.490295,-0.147293,0.026749,0.208542,0.307510,8.642227
2019-01-28 23:01:26:126,0.490295,-0.147293,0.026749,0.164276,0.043091,7.744919
2019-01-28 23:01:26:126,0.490295,-0.147293,0.026749,-0.206619,0.368530,7.232849
2019-01-28 23:01:26:126,0.490295,-0.147293,0.026749,-0.283188,0.795639,6.555679
2019-01-28 23:01:26:126,0.490295,-0.147293,0.026749,0.203766,0.897339,5.681107
2019-01-28 23:01:26:126,0.490295,-0.147293,0.026749,0.177444,0.788452,5.641632
2019-01-28 23:01:26:126,0.490295,-0.147293,0.026749,-0.490158,0.763336,6.921783
2019-01-28 23:01:26:126,0.490295,-0.147293,0.026749,-0.224564,0.314682,8.782196
2019-01-28 23:01:26:126,0.490295,-0.147293,0.026749,-0.079788,0.053864,9.908035
2019-01-28 23:01:26:126,-0.533813,-0.256027,0.093811,-0.079788,0.053864,9.908035
2019-01-28 23:01:26:126,-0.533813,-0.256027,0.093811,0.166672,0.252472,10.929764
2019-01-28 23:01:26:126,-0.533813,-0.256027,0.093811,0.110443,0.271622,11.477722
2019-01-28 23:01:26:126,-0.533813,-0.256027,0.093811,-0.231735,0.167526,12.035248
2019-01-28 23:01:26:126,-0.533813,-0.256027,0.093811,-0.302322,0.093338,12.922989
2019-01-28 23:01:26:126,-0.533813,-0.256027,0.093811,-0.053467,0.059845,13.095261
2019-01-28 23:01:26:126,-0.533813,-0.256027,0.093811,0.280334,0.095734,12.028061
2019-01-28 23:01:26:126,-0.533813,-0.256027,0.093811,0.329376,0.455856,10.616302
2019-01-28 23:01:26:126,-0.533813,-0.256027,0.093811,0.263580,0.539612,10.077927
2019-01-28 23:01:26:126,-0.533813,-0.256027,0.093811,0.482529,0.035919,10.249008
2019-01-28 23:01:26:126,0.153519,-0.026459,0.082275,0.482529,0.035919,10.249008
2019-01-28 23:01:26:126,0.153519,-0.026459,0.082275,0.577042,-0.313446,10.600754
2019-01-28 23:01:26:126,0.153519,-0.026459,0.082275,0.628494,-0.276352,10.226273
2019-01-28 23:01:26:126,0.153519,-0.026459,0.082275,0.483719,-0.112442,9.352890
2019-01-28 23:01:26:126,0.153519,-0.026459,0.082275,-0.073807,0.476196,8.715210
2019-01-28 23:01:26:126,0.153519,-0.026459,0.082275,-0.161148,1.141403,8.307220
2019-01-28 23:01:26:126,0.153519,-0.026459,0.082275,0.038651,1.491943,8.532150
2019-01-28 23:01:26:126,0.153519,-0.026459,0.082275,0.043442,0.927246,9.698654
2019-01-28 23:01:26:126,0.153519,-0.026459,0.082275,0.380829,-0.915237,12.177628
2019-01-28 23:01:26:126,0.153519,-0.026459,0.082275,0.677536,-2.451431,14.106232
2019-01-28 23:01:26:126,0.153519,-0.026459,0.082275,0.682327,-1.971664,13.931549
2019-01-28 23:01:26:126,0.062881,0.052094,0.062607,0.682327,-1.971664,13.931549
2019-01-28 23:01:26:126,0.062881,0.052094,0.062607,0.098480,-0.092102,10.829254
2019-01-28 23:01:26:126,0.062881,0.052094,0.062607,-0.418381,1.913086,7.085693
2019-01-28 23:01:26:126,0.062881,0.052094,0.062607,-0.267624,3.456451,4.668945
2019-01-28 23:01:26:126,0.062881,0.052094,0.062607,0.112839,2.614182,4.812515
2019-01-28 23:01:26:126,0.062881,0.052094,0.062607,-0.206619,0.193848,7.663559
2019-01-28 23:01:26:126,0.062881,0.052094,0.062607,0.110443,-1.765884,11.689484
2019-01-28 23:01:26:126,0.062881,0.052094,0.062607,1.426498,-2.009949,13.251999
2019-01-28 23:01:26:126,0.062881,0.052094,0.062607,1.153717,-0.587418,10.278915
2019-01-28 23:01:26:126,0.062881,0.052094,0.062607,-0.435135,0.905716,7.539139
2019-01-28 23:01:26:126,0.205566,-0.001236,-0.007523,-0.435135,0.905716,7.539139
2019-01-28 23:01:26:126,0.205566,-0.001236,-0.007523,-1.032135,1.585266,7.052200
2019-01-28 23:01:26:126,0.205566,-0.001236,-0.007523,-0.688766,1.257462,8.105042
2019-01-28 23:01:26:126,0.205566,-0.001236,-0.007523,-0.234131,0.629333,9.228470
2019-01-28 23:01:26:126,0.205566,-0.001236,-0.007523,0.066177,0.283569,9.261963
2019-01-28 23:01:26:126,0.205566,-0.001236,-0.007523,0.480133,-0.114838,8.621887
2019-01-28 23:01:26:126,0.205566,-0.001236,-0.007523,0.621307,-0.586227,8.328766
2019-01-28 23:01:26:126,0.205566,-0.001236,-0.007523,0.438263,-0.588608,8.223480
2019-01-28 23:01:26:126,0.205566,-0.001236,-0.007523,0.114029,-0.038269,8.156479
2019-01-28 23:01:26:126,0.205566,-0.001236,-0.007523,0.070953,0.586273,8.373032
2019-01-28 23:01:26:126,0.205566,-0.001236,-0.007523,-0.211395,0.893753,8.851593
2019-01-28 23:01:27:127,-0.491898,-0.111237,0.036407,-0.211395,0.893753,8.851593
2019-01-28 23:01:27:127,-0.491898,-0.111237,0.036407,-0.348984,0.702316,9.663956
2019-01-28 23:01:27:127,-0.491898,-0.111237,0.036407,-0.219772,0.398422,10.889084
2019-01-28 23:01:27:127,-0.491898,-0.111237,0.036407,-0.214996,-0.163895,12.687286
2019-01-28 23:01:27:127,-0.491898,-0.111237,0.036407,-0.000839,-0.885330,14.574036
2019-01-28 23:01:27:127,-0.491898,-0.111237,0.036407,0.013535,-0.823120,15.156693
2019-01-28 23:01:27:127,-0.491898,-0.111237,0.036407,-0.158768,-0.202179,13.935150
2019-01-28 23:01:27:127,-0.491898,-0.111237,0.036407,-0.359756,0.271606,12.020889
2019-01-28 23:01:27:127,-0.491898,-0.111237,0.036407,-0.365738,0.539612,10.317200
2019-01-28 23:01:27:127,-0.491898,-0.111237,0.036407,-0.185074,0.524048,9.138733
2019-01-28 23:01:27:127,0.343140,0.128693,0.003601,-0.185074,0.524048,9.138733
2019-01-28 23:01:27:127,0.343140,0.128693,0.003601,0.321014,0.230942,8.412521
2019-01-28 23:01:27:127,0.343140,0.128693,0.003601,0.751724,-0.019119,7.925583
2019-01-28 23:01:27:127,0.343140,0.128693,0.003601,0.482529,0.122055,7.639633
2019-01-28 23:01:27:127,0.343140,0.128693,0.003601,0.271957,0.210587,7.565445
2019-01-28 23:01:27:127,0.343140,0.128693,0.003601,0.468170,-0.260803,7.921982
2019-01-28 23:01:27:127,0.343140,0.128693,0.003601,0.196579,-0.617325,8.839630
2019-01-28 23:01:27:127,0.343140,0.128693,0.003601,-0.347794,-0.061005,9.472534
2019-01-28 23:01:27:127,0.343140,0.128693,0.003601,-0.314285,0.654465,8.940140
2019-01-28 23:01:27:127,0.343140,0.128693,0.003601,-0.088181,0.903320,8.230652
2019-01-28 23:01:27:127,0.343140,0.128693,0.003601,-0.035522,0.373306,8.408920
2019-01-28 23:01:27:127,-0.098511,0.154526,-0.012222,-0.035522,0.373306,8.408920
2019-01-28 23:01:27:127,-0.098511,0.154526,-0.012222,-0.183884,-0.295486,9.878113
2019-01-28 23:01:27:127,-0.098511,0.154526,-0.012222,-0.130051,-0.399582,11.667953
2019-01-28 23:01:27:127,-0.098511,0.154526,-0.012222,-0.067825,-0.129196,12.084290
2019-01-28 23:01:27:127,-0.098511,0.154526,-0.012222,-0.417175,0.317078,11.496857
2019-01-28 23:01:27:127,-0.098511,0.154526,-0.012222,-0.829941,0.575500,11.013519
2019-01-28 23:01:27:127,-0.098511,0.154526,-0.012222,-0.285583,0.021561,11.002747
2019-01-28 23:01:27:127,-0.098511,0.154526,-0.012222,-0.021164,-0.557510,11.029068
2019-01-28 23:01:27:127,-0.098511,0.154526,-0.012222,-0.027161,-0.594604,10.190384
2019-01-28 23:01:27:127,-0.098511,0.154526,-0.012222,0.025497,-0.058609,8.523788
2019-01-28 23:01:27:127,-0.092041,0.061493,-0.214844,0.025497,-0.058609,8.523788
2019-01-28 23:01:27:127,-0.092041,0.061493,-0.214844,0.282730,0.545593,6.247009
2019-01-28 23:01:27:127,-0.092041,0.061493,-0.214844,0.603363,0.619766,4.909424
2019-01-28 23:01:27:127,-0.092041,0.061493,-0.214844,0.038651,-0.116028,5.560272
2019-01-28 23:01:27:127,-0.092041,0.061493,-0.214844,-0.545197,-0.812347,7.673126
2019-01-28 23:01:27:127,-0.092041,0.061493,-0.214844,-0.169525,-1.494293,10.525375
2019-01-28 23:01:27:127,-0.092041,0.061493,-0.214844,-0.003220,-1.850830,12.452789
2019-01-28 23:01:27:127,-0.092041,0.061493,-0.214844,-0.631348,-1.083923,12.579620
2019-01-28 23:01:27:127,-0.092041,0.061493,-0.214844,-1.011795,0.059845,12.056778
2019-01-28 23:01:27:127,-0.092041,0.061493,-0.214844,-0.863449,0.203415,11.434647
2019-01-28 23:01:27:127,-0.092041,0.061493,-0.214844,-1.523865,0.212982,11.170242
2019-01-28 23:01:27:127,0.249619,-0.049301,0.091431,-1.523865,0.212982,11.170242
2019-01-28 23:01:27:127,0.249619,-0.049301,0.091431,-1.109909,0.543198,10.496658
2019-01-28 23:01:27:127,0.249619,-0.049301,0.091431,-0.106110,0.649689,9.571838
2019-01-28 23:01:27:127,0.249619,-0.049301,0.091431,-0.028351,0.184280,9.928360
2019-01-28 23:01:27:127,0.249619,-0.049301,0.091431,-0.734238,-0.200974,11.841431
2019-01-28 23:01:27:127,0.249619,-0.049301,0.091431,-0.532043,-0.606567,13.236450
2019-01-28 23:01:27:127,0.249619,-0.049301,0.091431,-0.322662,-1.048035,14.133759
2019-01-28 23:01:27:127,0.249619,-0.049301,0.091431,-0.270020,-0.916443,13.180206
2019-01-28 23:01:27:127,0.249619,-0.049301,0.091431,-0.016388,-0.401978,10.691681
2019-01-28 23:01:27:127,0.249619,-0.049301,0.091431,0.114029,-0.051422,7.880112
2019-01-28 23:01:27:127,0.249619,-0.049301,0.091431,0.232483,-0.010757,5.769638
2019-01-28 23:01:27:127,0.249619,-0.049301,0.091431,0.408356,-0.025101,4.819687
2019-01-28 23:01:27:127,0.249619,-0.049301,0.091431,0.665573,0.025146,4.386581
2019-01-28 23:01:27:127,0.249619,-0.049301,0.091431,0.864182,0.147186,4.159271
2019-01-28 23:01:27:127,0.249619,-0.049301,0.091431,0.413132,-0.050232,4.884293
2019-01-28 23:01:27:127,0.249619,-0.049301,0.091431,-0.632538,-0.245239,7.242416
2019-01-28 23:01:27:127,0.249619,-0.049301,0.091431,-1.363541,0.071808,10.651001
2019-01-28 23:01:27:127,0.249619,-0.049301,0.091431,-1.312103,0.565933,13.380020
2019-01-28 23:01:27:127,0.249619,-0.049301,0.091431,-1.479599,0.777695,14.128967
2019-01-28 23:01:27:127,0.249619,-0.049301,0.091431,-2.130447,1.318466,14.420898
2019-01-28 23:01:28:128,-0.179398,0.027832,-0.066650,-2.130447,1.318466,14.420898
2019-01-28 23:01:28:128,-0.179398,0.027832,-0.066650,-1.836121,1.463242,14.172043
2019-01-28 23:01:28:128,-0.179398,0.027832,-0.066650,-0.861053,0.787262,12.564056
2019-01-28 23:01:28:128,-0.179398,0.027832,-0.066650,-0.352570,0.216583,10.593567
2019-01-28 23:01:28:128,-0.179398,0.027832,-0.066650,0.011139,0.166321,9.186584
2019-01-28 23:01:28:128,-0.179398,0.027832,-0.066650,0.663177,0.308701,7.655182
2019-01-28 23:01:28:128,-0.179398,0.027832,-0.066650,1.194397,0.509705,6.016098
2019-01-28 23:01:28:128,-0.179398,0.027832,-0.066650,1.012527,0.376892,5.750488
2019-01-28 23:01:28:128,-0.179398,0.027832,-0.066650,0.185822,-0.245239,8.017700
2019-01-28 23:01:28:128,-0.179398,0.027832,-0.066650,-0.236526,-0.860199,10.662964
2019-01-28 23:01:28:128,0.265869,0.000656,0.210007,-0.236526,-0.860199,10.662964
2019-01-28 23:01:28:128,0.265869,0.000656,0.210007,-0.049881,-1.111450,11.687088
2019-01-28 23:01:28:128,0.265869,0.000656,0.210007,0.310242,-0.544342,10.208328
2019-01-28 23:01:28:128,0.265869,0.000656,0.210007,0.121201,0.637711,7.667145
2019-01-28 23:01:28:128,0.265869,0.000656,0.210007,-0.048691,1.812592,5.868942
2019-01-28 23:01:28:128,0.265869,0.000656,0.210007,-0.469833,2.298325,5.892868
2019-01-28 23:01:28:128,0.265869,0.000656,0.210007,-1.714096,1.879593,8.224686
2019-01-28 23:01:28:128,0.265869,0.000656,0.210007,-1.887573,0.866226,11.530365
2019-01-28 23:01:28:128,0.265869,0.000656,0.210007,-0.883789,-0.617325,15.123184
2019-01-28 23:01:28:128,0.265869,0.000656,0.210007,0.172653,-1.441666,16.210724
2019-01-28 23:01:28:128,0.265869,0.000656,0.210007,0.329391,-0.391205,14.435242
2019-01-28 23:01:28:128,-0.305237,-0.127014,0.022720,0.329391,-0.391205,14.435242
2019-01-28 23:01:28:128,-0.305237,-0.127014,0.022720,-0.267639,1.177292,12.005341
2019-01-28 23:01:28:128,-0.305237,-0.127014,0.022720,-0.669617,1.615189,10.545715
2019-01-28 23:01:28:128,-0.305237,-0.127014,0.022720,-0.801224,1.258652,10.259766
2019-01-28 23:01:28:128,-0.305237,-0.127014,0.022720,-0.063049,0.490555,10.094666
2019-01-28 23:01:28:128,-0.305237,-0.127014,0.022720,0.886917,-0.307465,9.403137
2019-01-28 23:01:28:128,-0.305237,-0.127014,0.022720,0.964676,-0.754913,8.268951
2019-01-28 23:01:28:128,-0.305237,-0.127014,0.022720,0.717026,-0.415131,7.251999
2019-01-28 23:01:28:128,-0.305237,-0.127014,0.022720,0.507645,0.300323,6.110611
2019-01-28 23:01:28:128,-0.305237,-0.127014,0.022720,0.664383,0.947586,5.086487
2019-01-28 23:01:28:128,-0.305237,-0.127014,0.022720,-0.493759,1.226349,5.298248
2019-01-28 23:01:28:128,0.861816,0.023392,-0.060852,-0.493759,1.226349,5.298248
2019-01-28 23:01:28:128,0.861816,0.023392,-0.060852,-1.353973,1.569717,6.383392
2019-01-28 23:01:28:128,0.861816,0.023392,-0.060852,-1.295349,1.680984,7.514008
2019-01-28 23:01:28:128,0.861816,0.023392,-0.060852,-0.719879,1.490753,8.339539
2019-01-28 23:01:28:128,0.861816,0.023392,-0.060852,-0.849091,1.576904,9.333755
2019-01-28 23:01:28:128,0.861816,0.023392,-0.060852,-0.829941,1.904709,9.806335
2019-01-28 23:01:28:128,0.861816,0.023392,-0.060852,-0.640915,1.886765,10.172440
2019-01-28 23:01:28:128,0.861816,0.023392,-0.060852,-0.716278,1.629532,11.032654
2019-01-28 23:01:28:128,0.861816,0.023392,-0.060852,-0.672012,1.330444,11.977814
2019-01-28 23:01:28:128,0.861816,0.023392,-0.060852,-0.274811,1.342407,12.123779
2019-01-28 23:01:28:128,0.861816,0.023392,-0.060852,-0.112106,1.275406,11.387985
2019-01-28 23:01:28:128,-0.324585,0.010498,0.123444,-0.112106,1.275406,11.387985
2019-01-28 23:01:28:128,-0.324585,0.010498,0.123444,-0.222168,1.136612,10.405731
2019-01-28 23:01:28:128,-0.324585,0.010498,0.123444,-0.338226,1.219162,9.741730
2019-01-28 23:01:28:128,-0.324585,0.010498,0.123444,-0.183884,1.107910,9.080109
2019-01-28 23:01:28:128,-0.324585,0.010498,0.123444,-0.235321,1.007401,8.510620
2019-01-28 23:01:28:128,-0.324585,0.010498,0.123444,-0.536819,1.246689,8.449600
2019-01-28 23:01:28:128,-0.324585,0.010498,0.123444,-0.577499,1.215576,8.824081
2019-01-28 23:01:28:128,-0.324585,0.010498,0.123444,-0.642105,1.037323,9.321777
2019-01-28 23:01:28:128,-0.324585,0.010498,0.123444,-0.351379,0.872208,9.927170
2019-01-28 23:01:28:128,-0.324585,0.010498,0.123444,-0.189865,1.173706,10.292068
2019-01-28 23:01:28:128,-0.324585,0.010498,0.123444,-0.082184,1.206009,10.665359
2019-01-28 23:01:28:128,-0.152023,-0.067444,0.157471,-0.082184,1.206009,10.665359
2019-01-28 23:01:28:128,-0.152023,-0.067444,0.157471,-0.441116,1.134232,11.116409
2019-01-28 23:01:28:128,-0.152023,-0.067444,0.157471,-0.455475,0.993057,11.963455
2019-01-28 23:01:28:128,-0.152023,-0.067444,0.157471,-0.041504,0.547989,12.394165
2019-01-28 23:01:28:128,-0.152023,-0.067444,0.157471,0.122406,0.478592,11.870148
2019-01-28 23:01:29:129,-0.152023,-0.067444,0.157471,0.466965,0.630539,10.195160
2019-01-28 23:01:29:129,-0.152023,-0.067444,0.157471,0.750519,0.614975,8.266556
2019-01-28 23:01:29:129,-0.152023,-0.067444,0.157471,0.489700,0.579086,6.832047
2019-01-28 23:01:29:129,-0.152023,-0.067444,0.157471,0.240860,0.568314,6.203934
2019-01-28 23:01:29:129,-0.152023,-0.067444,0.157471,0.324600,0.574295,6.118988
2019-01-28 23:01:29:129,-0.152023,-0.067444,0.157471,0.563873,0.681976,6.089081
2019-01-28 23:01:29:129,0.263779,0.038284,0.056992,0.563873,0.681976,6.089081
2019-01-28 23:01:29:129,0.263779,0.038284,0.056992,0.020706,1.099533,6.537735
2019-01-28 23:01:29:129,0.263779,0.038284,0.056992,-0.338226,1.149780,8.197159
2019-01-28 23:01:29:129,0.263779,0.038284,0.056992,-0.179092,0.587463,10.491882
2019-01-28 23:01:29:129,0.263779,0.038284,0.056992,-0.494949,0.169922,13.280716
2019-01-28 23:01:29:129,0.263779,0.038284,0.056992,-0.962738,0.239304,15.806335
2019-01-28 23:01:29:129,0.263779,0.038284,0.056992,-0.783279,-0.095703,16.495468
2019-01-28 23:01:29:129,0.263779,0.038284,0.056992,-0.652878,-0.095688,14.597961
2019-01-28 23:01:29:129,0.263779,0.038284,0.056992,-0.614594,0.659256,11.655975
2019-01-28 23:01:29:129,0.263779,0.038284,0.056992,-0.392059,1.545792,8.520187
2019-01-28 23:01:29:129,0.263779,0.038284,0.056992,-0.059448,2.079391,5.551895
2019-01-28 23:01:29:129,-0.121292,-0.014114,-0.059250,-0.059448,2.079391,5.551895
2019-01-28 23:01:29:129,-0.121292,-0.014114,-0.059250,0.396378,2.112885,4.402145
2019-01-28 23:01:29:129,-0.121292,-0.014114,-0.059250,0.857010,1.093536,5.356873
2019-01-28 23:01:29:129,-0.121292,-0.014114,-0.059250,0.835464,-0.256012,7.437439
2019-01-28 23:01:29:129,-0.121292,-0.014114,-0.059250,0.883316,-1.270569,9.748901
2019-01-28 23:01:29:129,-0.121292,-0.014114,-0.059250,0.809143,-1.517029,11.463364
2019-01-28 23:01:29:129,-0.121292,-0.014114,-0.059250,-0.098938,-0.486923,11.785202
2019-01-28 23:01:29:129,-0.121292,-0.014114,-0.059250,-1.276199,1.232330,11.052994
2019-01-28 23:01:29:129,-0.121292,-0.014114,-0.059250,-1.898346,2.415573,10.639038
2019-01-28 23:01:29:129,-0.121292,-0.014114,-0.059250,-1.517883,1.524246,11.657181
2019-01-28 23:01:29:129,-0.121292,-0.014114,-0.059250,-1.179291,0.575500,12.957672
2019-01-28 23:01:29:129,-0.482376,0.124237,-0.095413,-1.179291,0.575500,12.957672
2019-01-28 23:01:29:129,-0.482376,0.124237,-0.095413,-0.545197,0.777695,13.236435
2019-01-28 23:01:29:129,-0.482376,0.124237,-0.095413,0.529190,0.610199,11.682312
2019-01-28 23:01:29:129,-0.482376,0.124237,-0.095413,0.573456,-0.308655,10.325577
2019-01-28 23:01:29:129,-0.482376,0.124237,-0.095413,-0.258057,-0.260803,10.384201
2019-01-28 23:01:29:129,-0.482376,0.124237,-0.095413,-0.194656,0.484573,9.466553
2019-01-28 23:01:29:129,-0.482376,0.124237,-0.095413,0.323410,0.838715,7.354889
2019-01-28 23:01:29:129,-0.482376,0.124237,-0.095413,0.372452,0.886566,5.417892
2019-01-28 23:01:29:129,-0.482376,0.124237,-0.095413,-0.255661,1.334030,4.702438
2019-01-28 23:01:29:129,-0.482376,0.124237,-0.095413,-0.268829,2.103317,4.692871
2019-01-28 23:01:29:129,-0.482376,0.124237,-0.095413,0.374847,1.086365,5.701447
2019-01-28 23:01:29:129,0.428345,0.156540,-0.026031,0.374847,1.086365,5.701447
2019-01-28 23:01:29:129,0.428345,0.156540,-0.026031,0.136765,-1.124603,8.109818
2019-01-28 23:01:29:129,0.428345,0.156540,-0.026031,-0.165939,-1.601974,11.963455
2019-01-28 23:01:29:129,0.428345,0.156540,-0.026031,-0.388474,-0.803970,15.022690
2019-01-28 23:01:29:129,0.428345,0.156540,-0.026031,-1.035736,0.336212,13.963867
2019-01-28 23:01:29:129,0.428345,0.156540,-0.026031,-2.063446,1.923859,11.561462
2019-01-28 23:01:29:129,0.428345,0.156540,-0.026031,-2.167542,2.926453,10.036041
2019-01-28 23:01:29:129,0.428345,0.156540,-0.026031,-1.508316,2.550766,9.437836
2019-01-28 23:01:29:129,0.428345,0.156540,-0.026031,-0.518875,0.829147,9.622086
2019-01-28 23:01:29:129,0.428345,0.156540,-0.026031,0.352112,-0.563492,10.788589
2019-01-28 23:01:29:129,0.428345,0.156540,-0.026031,1.068771,-1.081543,11.149902
2019-01-28 23:01:29:129,-0.270477,-0.051819,0.069992,1.068771,-1.081543,11.149902
2019-01-28 23:01:29:129,-0.270477,-0.051819,0.069992,1.144150,-1.059998,10.294464
2019-01-28 23:01:29:129,-0.270477,-0.051819,0.069992,0.196579,-0.301483,9.555084
2019-01-28 23:01:29:129,-0.270477,-0.051819,0.069992,-0.901733,1.426147,9.325378
2019-01-28 23:01:29:129,-0.270477,-0.051819,0.069992,-1.045303,2.305511,9.117203
2019-01-28 23:01:29:129,-0.270477,-0.051819,0.069992,-0.704315,1.319672,9.391174
2019-01-28 23:01:30:130,-0.270477,-0.051819,0.069992,-0.664841,0.142395,10.513412
2019-01-28 23:01:30:130,-0.270477,-0.051819,0.069992,-0.009201,-0.325409,10.953690
2019-01-28 23:01:30:130,-0.270477,-0.051819,0.069992,0.295883,-0.173462,9.831451
2019-01-28 23:01:30:130,-0.270477,-0.051819,0.069992,0.099670,0.355362,8.140930
2019-01-28 23:01:30:130,-0.270477,-0.051819,0.069992,-0.022369,0.971512,6.599945
2019-01-28 23:01:30:130,0.337875,-0.081802,-0.047287,-0.022369,0.971512,6.599945
2019-01-28 23:01:30:130,0.337875,-0.081802,-0.047287,0.273148,1.220367,5.821075
2019-01-28 23:01:30:130,0.337875,-0.081802,-0.047287,0.648819,0.728638,6.706436
2019-01-28 23:01:30:130,0.337875,-0.081802,-0.047287,0.334167,0.204605,8.748703
2019-01-28 23:01:30:130,0.337875,-0.081802,-0.047287,-0.153976,0.480988,11.076920
2019-01-28 23:01:30:130,0.337875,-0.081802,-0.047287,-0.557159,1.185669,12.341537
2019-01-28 23:01:30:130,0.337875,-0.081802,-0.047287,-0.744995,1.385468,12.014908
2019-01-28 23:01:30:130,0.337875,-0.081802,-0.047287,-0.631348,0.155563,12.634644
2019-01-28 23:01:30:130,0.337875,-0.081802,-0.047287,-0.438721,-0.519226,14.084702
2019-01-28 23:01:30:130,0.337875,-0.081802,-0.047287,-0.199432,0.364929,14.198364
2019-01-28 23:01:30:130,0.337875,-0.081802,-0.047287,0.051819,1.793442,11.909622
2019-01-28 23:01:30:130,-0.411270,-0.133118,0.033279,0.051819,1.793442,11.909622
2019-01-28 23:01:30:130,-0.411270,-0.133118,0.033279,0.081726,1.989655,9.788391
2019-01-28 23:01:30:130,-0.411270,-0.133118,0.033279,-0.025955,1.136612,9.738144
2019-01-28 23:01:30:130,-0.411270,-0.133118,0.033279,0.593796,-0.429489,11.287491
2019-01-28 23:01:30:130,-0.411270,-0.133118,0.033279,1.461197,-1.757507,11.883301
2019-01-28 23:01:30:130,-0.411270,-0.133118,0.033279,1.482727,-1.689316,10.886688
2019-01-28 23:01:30:130,-0.411270,-0.133118,0.033279,0.610550,-0.348129,8.580017
2019-01-28 23:01:30:130,-0.411270,-0.133118,0.033279,-0.481781,1.386673,5.398758
2019-01-28 23:01:30:130,-0.411270,-0.133118,0.033279,-0.859848,2.372513,3.031052
2019-01-28 23:01:30:130,-0.411270,-0.133118,0.033279,-0.069031,1.829346,2.447205
2019-01-28 23:01:30:130,-0.411270,-0.133118,0.033279,-0.013992,0.467819,4.020493
2019-01-28 23:01:30:130,0.651199,0.177567,-0.106537,-0.013992,0.467819,4.020493
2019-01-28 23:01:30:130,0.651199,0.177567,-0.106537,-0.164734,-0.538361,7.374023
2019-01-28 23:01:30:130,0.651199,0.177567,-0.106537,0.513641,-1.131790,10.363861
2019-01-28 23:01:30:130,0.651199,0.177567,-0.106537,0.859390,-0.745346,11.842621
2019-01-28 23:01:30:130,0.651199,0.177567,-0.106537,0.252808,0.253662,11.257584
2019-01-28 23:01:30:130,0.651199,0.177567,-0.106537,-1.316879,1.721664,10.636642
2019-01-28 23:01:30:130,0.651199,0.177567,-0.106537,-2.332642,2.843903,11.299454
2019-01-28 23:01:30:130,0.651199,0.177567,-0.106537,-1.394653,1.884369,12.939728
2019-01-28 23:01:30:130,0.651199,0.177567,-0.106537,-0.788071,0.507309,14.313217
2019-01-28 23:01:30:130,0.651199,0.177567,-0.106537,-0.151581,0.095734,14.405334
2019-01-28 23:01:30:130,0.651199,0.177567,-0.106537,0.536362,-0.088516,12.933746
2019-01-28 23:01:30:130,-0.722809,-0.100555,-0.151993,0.536362,-0.088516,12.933746
2019-01-28 23:01:30:130,-0.722809,-0.100555,-0.151993,0.578232,-0.679535,11.439438
2019-01-28 23:01:30:130,-0.722809,-0.100555,-0.151993,0.031479,-0.518021,11.158279
2019-01-28 23:01:30:130,-0.722809,-0.100555,-0.151993,-0.256866,0.326645,11.453781
2019-01-28 23:01:30:130,-0.722809,-0.100555,-0.151993,-0.027161,0.117279,10.928558
2019-01-28 23:01:30:130,-0.722809,-0.100555,-0.151993,-0.267639,-0.168671,10.536148
2019-01-28 23:01:30:130,-0.722809,-0.100555,-0.151993,-0.380096,0.135223,9.741730
2019-01-28 23:01:30:130,-0.722809,-0.100555,-0.151993,-0.173111,0.721466,8.178024
2019-01-28 23:01:30:130,-0.722809,-0.100555,-0.151993,-0.033142,0.891342,6.244614
2019-01-28 23:01:30:130,-0.722809,-0.100555,-0.151993,0.116425,0.415176,5.338928
2019-01-28 23:01:30:130,-0.722809,-0.100555,-0.151993,0.073349,0.175903,5.355682
2019-01-28 23:01:30:130,0.391937,-0.035568,-0.082031,0.073349,0.175903,5.355682
2019-01-28 23:01:30:130,0.391937,-0.035568,-0.082031,-0.061844,0.681976,6.071136
2019-01-28 23:01:30:130,0.391937,-0.035568,-0.082031,0.336563,0.680786,6.951691
2019-01-28 23:01:30:130,0.391937,-0.035568,-0.082031,0.125992,-0.392410,8.571640
2019-01-28 23:01:30:130,0.391937,-0.035568,-0.082031,-0.387268,-1.068375,11.635651
2019-01-28 23:01:30:130,0.391937,-0.035568,-0.082031,-0.139618,-0.648438,14.845612
2019-01-28 23:01:30:130,0.391937,-0.035568,-0.082031,0.165482,-0.194992,15.340927
2019-01-28 23:01:31:131,0.391937,-0.035568,-0.082031,-0.320267,0.112488,13.592972
2019-01-28 23:01:31:131,0.391937,-0.035568,-0.082031,-0.922073,1.280182,11.912018
2019-01-28 23:01:31:131,0.391937,-0.035568,-0.082031,-0.431534,2.233719,9.905640
2019-01-28 23:01:31:131,0.391937,-0.035568,-0.082031,0.898880,1.189255,8.532150
2019-01-28 23:01:31:131,-0.324707,-0.086456,-0.003418,0.898880,1.189255,8.532150
2019-01-28 23:01:31:131,-0.324707,-0.086456,-0.003418,0.518417,-0.401978,8.401749
2019-01-28 23:01:31:131,-0.324707,-0.086456,-0.003418,0.403564,-0.796799,9.133942
2019-01-28 23:01:31:131,-0.324707,-0.086456,-0.003418,0.532776,-0.227295,8.595566
2019-01-28 23:01:31:131,-0.324707,-0.086456,-0.003418,0.347336,-0.159103,7.442230
2019-01-28 23:01:31:131,-0.324707,-0.086456,-0.003418,-0.358551,0.189056,7.015106
2019-01-28 23:01:31:131,-0.324707,-0.086456,-0.003418,-0.667236,0.850677,7.965057
2019-01-28 23:01:31:131,-0.324707,-0.086456,-0.003418,-0.174316,0.050278,9.352890
2019-01-28 23:01:31:131,-0.324707,-0.086456,-0.003418,-0.140808,-0.747742,11.020691
2019-01-28 23:01:31:131,-0.324707,-0.086456,-0.003418,-0.139618,-0.230896,11.696671
2019-01-28 23:01:31:131,-0.324707,-0.086456,-0.003418,0.414322,0.616180,9.894867
2019-01-28 23:01:31:131,0.173325,-0.003555,-0.009598,0.414322,0.616180,9.894867
2019-01-28 23:01:31:131,0.173325,-0.003555,-0.009598,0.230087,0.705902,7.792770
2019-01-28 23:01:31:131,0.173325,-0.003555,-0.009598,-0.611008,0.809998,7.301056
2019-01-28 23:01:31:131,0.173325,-0.003555,-0.009598,-0.778503,1.033722,7.796356
2019-01-28 23:01:31:131,0.173325,-0.003555,-0.009598,0.213333,0.896149,7.369232
2019-01-28 23:01:31:131,0.173325,-0.003555,-0.009598,0.803162,0.565933,6.310425
2019-01-28 23:01:31:131,0.173325,-0.003555,-0.009598,0.706253,0.429535,5.579407
2019-01-28 23:01:31:131,0.173325,-0.003555,-0.009598,0.620117,0.288361,6.505432
2019-01-28 23:01:31:131,0.173325,-0.003555,-0.009598,0.829483,-0.155518,8.761871
2019-01-28 23:01:31:131,0.173325,-0.003555,-0.009598,0.578232,-0.033478,10.408127
2019-01-28 23:01:31:131,0.173325,-0.003555,-0.009598,0.301865,0.610199,11.338943
2019-01-28 23:01:31:131,0.031357,0.001083,0.021439,0.301865,0.610199,11.338943
2019-01-28 23:01:31:131,0.031357,0.001083,0.021439,-0.290359,0.707108,12.059174
2019-01-28 23:01:31:131,0.031357,0.001083,0.021439,-1.454468,1.021759,12.743515
2019-01-28 23:01:31:131,0.031357,0.001083,0.021439,-1.248688,1.392654,13.010330
2019-01-28 23:01:31:131,0.031357,0.001083,0.021439,-0.089371,1.101913,12.189590
2019-01-28 23:01:31:131,0.031357,0.001083,0.021439,0.410736,0.867432,10.816101
2019-01-28 23:01:31:131,0.031357,0.001083,0.021439,0.545929,0.910492,9.900848
2019-01-28 23:01:31:131,0.031357,0.001083,0.021439,0.929993,0.626953,9.955887
2019-01-28 23:01:31:131,0.031357,0.001083,0.021439,0.587814,-0.139969,10.503845
2019-01-28 23:01:31:131,0.031357,0.001083,0.021439,0.319824,-0.147141,11.644028
2019-01-28 23:01:31:131,0.031357,0.001083,0.021439,0.228882,0.480988,11.695465
2019-01-28 23:01:31:131,-0.079575,-0.030991,0.086304,0.228882,0.480988,11.695465
2019-01-28 23:01:31:131,-0.079575,-0.030991,0.086304,0.379639,0.471405,11.368851
2019-01-28 23:01:31:131,-0.079575,-0.030991,0.086304,0.011139,0.557556,11.548309
2019-01-28 23:01:31:131,-0.079575,-0.030991,0.086304,0.037460,0.680786,12.263763
2019-01-28 23:01:31:131,-0.079575,-0.030991,0.086304,0.175049,0.640106,12.881119
2019-01-28 23:01:31:131,-0.079575,-0.030991,0.086304,0.530380,0.832733,12.982803
2019-01-28 23:01:31:131,-0.079575,-0.030991,0.086304,0.519623,1.107895,12.541321
2019-01-28 23:01:31:131,-0.079575,-0.030991,0.086304,0.409546,1.015778,11.646408
2019-01-28 23:01:31:131,-0.079575,-0.030991,0.086304,0.283920,0.600632,11.123581
2019-01-28 23:01:31:131,-0.079575,-0.030991,0.086304,0.334167,0.525253,10.507431
2019-01-28 23:01:31:131,-0.079575,-0.030991,0.086304,0.565079,0.629333,9.026276
2019-01-28 23:01:32:132,0.342712,0.008057,0.064377,0.565079,0.629333,9.026276
2019-01-28 23:01:32:132,0.342712,0.008057,0.064377,0.809143,0.642502,7.120392
2019-01-28 23:01:32:132,0.342712,0.008057,0.064377,0.684723,0.693939,5.355682
2019-01-28 23:01:32:132,0.342712,0.008057,0.064377,0.464584,0.640106,4.368652
2019-01-28 23:01:32:132,0.342712,0.008057,0.064377,0.538757,0.862640,4.111420
2019-01-28 23:01:32:132,0.219009,0.236374,-0.066467,0.538757,0.862640,4.111420
2019-01-28 23:01:32:132,0.219009,0.236374,-0.066467,0.610550,1.116287,3.610123
2019-01-28 23:01:32:132,0.219009,0.236374,-0.066467,0.165482,1.245483,3.902039
2019-01-28 23:01:32:132,0.219009,0.236374,-0.066467,-0.414795,1.118668,4.813705
2019-01-28 23:01:32:132,0.219009,0.236374,-0.066467,-0.451874,0.465439,6.279312
2019-01-28 23:01:32:132,0.219009,0.236374,-0.066467,0.221710,-0.046646,8.418503
2019-01-28 23:01:32:132,0.219009,0.236374,-0.066467,0.705063,0.002426,10.223877
2019-01-28 23:01:32:132,0.219009,0.236374,-0.066467,0.755310,0.311096,11.469345
2019-01-28 23:01:32:132,0.219009,0.236374,-0.066467,0.135574,0.769318,12.048401
2019-01-28 23:01:32:132,0.219009,0.236374,-0.066467,-0.468628,1.524246,12.134552
2019-01-28 23:01:32:132,-0.911499,-0.119736,-0.163284,-0.468628,1.524246,12.134552
2019-01-28 23:01:32:132,-0.911499,-0.119736,-0.163284,-0.548782,1.962143,11.928757
2019-01-28 23:01:32:132,-0.911499,-0.119736,-0.163284,-0.258057,2.041107,11.432251
2019-01-28 23:01:32:132,-0.911499,-0.119736,-0.163284,-0.120468,1.564926,11.858185
2019-01-28 23:01:32:132,-0.911499,-0.119736,-0.163284,0.402359,-0.157913,14.026077
2019-01-28 23:01:32:132,-0.911499,-0.119736,-0.163284,1.129776,-1.808960,16.254990
2019-01-28 23:01:32:132,-0.911499,-0.119736,-0.163284,1.446823,-1.762299,17.025482
2019-01-28 23:01:32:132,-0.911499,-0.119736,-0.163284,0.920410,-0.447449,15.611313
2019-01-28 23:01:32:132,-0.911499,-0.119736,-0.163284,-0.076202,1.062439,13.960266
2019-01-28 23:01:32:132,-0.911499,-0.119736,-0.163284,-0.676804,1.897537,12.470749
2019-01-28 23:01:32:132,-0.911499,-0.119736,-0.163284,-0.545197,1.779083,11.433456
2019-01-28 23:01:32:132,0.513687,0.115128,-0.305496,-0.545197,1.779083,11.433456
2019-01-28 23:01:32:132,0.513687,0.115128,-0.305496,0.208557,0.715485,10.795761
2019-01-28 23:01:32:132,0.513687,0.115128,-0.305496,0.551926,-0.270370,10.124573
2019-01-28 23:01:32:132,0.513687,0.115128,-0.305496,0.591400,-0.399582,8.955688
2019-01-28 23:01:32:132,0.513687,0.115128,-0.305496,0.712234,-0.216537,7.451797
2019-01-28 23:01:32:132,0.513687,0.115128,-0.305496,0.684723,-0.071762,6.269745
2019-01-28 23:01:32:132,0.513687,0.115128,-0.305496,0.268372,0.032333,5.224075
2019-01-28 23:01:32:132,0.513687,0.115128,-0.305496,-0.234131,0.464233,4.828064
2019-01-28 23:01:32:132,0.513687,0.115128,-0.305496,-0.082184,0.708298,5.063751
2019-01-28 23:01:32:132,0.513687,0.115128,-0.305496,-0.003220,0.536011,5.636841
2019-01-28 23:01:32:132,-0.106766,-0.111496,-0.060532,-0.003220,0.536011,5.636841
2019-01-28 23:01:32:132,-0.106766,-0.111496,-0.060532,-0.457855,0.348175,7.211319
2019-01-28 23:01:32:132,-0.106766,-0.111496,-0.060532,-0.322662,0.059845,9.288284
2019-01-28 23:01:32:132,-0.106766,-0.111496,-0.060532,0.097275,-0.278748,11.007523
2019-01-28 23:01:32:132,-0.106766,-0.111496,-0.060532,-0.303528,0.051468,11.141525
2019-01-28 23:01:32:132,-0.106766,-0.111496,-0.060532,-0.486572,0.738205,10.184402
2019-01-28 23:01:32:132,-0.106766,-0.111496,-0.060532,-0.222168,1.112686,8.876724
2019-01-28 23:01:32:132,-0.106766,-0.111496,-0.060532,-0.249695,0.757355,7.692276
2019-01-28 23:01:32:132,-0.106766,-0.111496,-0.060532,0.110443,0.053864,7.467346
2019-01-28 23:01:32:132,-0.106766,-0.111496,-0.060532,0.616531,-0.571869,7.955490
2019-01-28 23:01:32:132,-0.106766,-0.111496,-0.060532,0.694290,-0.610153,8.217499
2019-01-28 23:01:32:132,-0.224899,0.001328,-0.069397,0.694290,-0.610153,8.217499
2019-01-28 23:01:32:132,-0.224899,0.001328,-0.069397,0.542343,-0.045441,8.128967
2019-01-28 23:01:32:132,-0.224899,0.001328,-0.069397,0.196594,0.630524,8.099045
2019-01-28 23:01:32:132,-0.224899,0.001328,-0.069397,-0.126465,0.847092,8.998749
2019-01-28 23:01:32:132,-0.224899,0.001328,-0.069397,-0.080994,0.733429,10.519394
2019-01-28 23:01:32:132,-0.224899,0.001328,-0.069397,0.411942,0.670013,11.973038
2019-01-28 23:01:32:132,-0.224899,0.001328,-0.069397,1.084320,0.049088,12.529358
2019-01-28 23:01:32:132,-0.224899,0.001328,-0.069397,0.709839,-0.352921,12.325974
2019-01-28 23:01:32:132,-0.224899,0.001328,-0.069397,0.366470,0.212982,11.719391
2019-01-28 23:01:32:132,-0.224899,0.001328,-0.069397,0.683533,0.635315,10.417709
2019-01-28 23:01:33:133,-0.102905,-0.033798,-0.201096,0.683533,0.635315,10.417709
2019-01-28 23:01:33:133,-0.102905,-0.033798,-0.201096,0.653610,0.063446,9.519196
2019-01-28 23:01:33:133,-0.102905,-0.033798,-0.201096,-0.000839,-0.157913,9.814713
2019-01-28 23:01:33:133,-0.102905,-0.033798,-0.201096,-0.039108,0.306305,10.150894
2019-01-28 23:01:33:133,-0.102905,-0.033798,-0.201096,0.060196,0.320663,10.007324
2019-01-28 23:01:33:133,-0.102905,-0.033798,-0.201096,-0.298737,0.116074,10.048004
2019-01-28 23:01:33:133,-0.102905,-0.033798,-0.201096,-0.218582,0.195038,11.006332
2019-01-28 23:01:33:133,-0.102905,-0.033798,-0.201096,0.251617,-0.496490,11.908417
2019-01-28 23:01:33:133,-0.102905,-0.033798,-0.201096,0.520813,-1.627106,12.407333
2019-01-28 23:01:33:133,-0.102905,-0.033798,-0.201096,0.504059,-1.694107,11.874924
2019-01-28 23:01:33:133,-0.102905,-0.033798,-0.201096,0.209747,-0.510849,10.201157
2019-01-28 23:01:33:133,-0.081650,-0.098236,-0.113678,0.209747,-0.510849,10.201157
2019-01-28 23:01:33:133,-0.081650,-0.098236,-0.113678,-0.159958,0.693939,7.828659
2019-01-28 23:01:33:133,-0.081650,-0.098236,-0.113678,-0.383682,1.340012,5.671539
2019-01-28 23:01:33:133,-0.081650,-0.098236,-0.113678,-0.232941,1.953766,4.822083
2019-01-28 23:01:33:133,-0.081650,-0.098236,-0.113678,0.605759,1.785080,6.038834
2019-01-28 23:01:33:133,-0.081650,-0.098236,-0.113678,0.468170,-0.002380,8.405334
2019-01-28 23:01:33:133,-0.081650,-0.098236,-0.113678,0.164276,-2.073364,13.259171
2019-01-28 23:01:33:133,-0.081650,-0.098236,-0.113678,0.868973,-3.004166,17.538742
2019-01-28 23:01:33:133,-0.081650,-0.098236,-0.113678,1.147736,-2.554321,16.098267
2019-01-28 23:01:33:133,-0.081650,-0.098236,-0.113678,0.403564,-0.992996,12.220688
2019-01-28 23:01:33:133,-0.081650,-0.098236,-0.113678,-0.784485,1.642700,9.429459
2019-01-28 23:01:33:133,0.854675,0.038895,0.083130,-0.784485,1.642700,9.429459
2019-01-28 23:01:33:133,0.854675,0.038895,0.083130,-1.425751,3.620377,7.348907
2019-01-28 23:01:33:133,0.854675,0.038895,0.083130,-0.828751,3.678986,6.784195
2019-01-28 23:01:33:133,0.854675,0.038895,0.083130,-0.828751,1.905914,8.478317
2019-01-28 23:01:33:133,0.854675,0.038895,0.083130,-0.174316,-1.067184,11.688293
2019-01-28 23:01:33:133,0.854675,0.038895,0.083130,1.164490,-3.079544,13.770050
2019-01-28 23:01:33:133,0.854675,0.038895,0.083130,2.046234,-2.780441,12.314011
2019-01-28 23:01:33:133,0.854675,0.038895,0.083130,1.178833,-0.902084,8.696060
2019-01-28 23:01:33:133,0.854675,0.038895,0.083130,-0.272415,1.080383,5.538727
2019-01-28 23:01:33:133,0.854675,0.038895,0.083130,-0.668427,2.244492,3.823090
2019-01-28 23:01:33:133,0.854675,0.038895,0.083130,-0.268829,2.478989,3.364853
2019-01-28 23:01:33:133,0.854675,0.038895,0.083130,0.225296,2.100922,3.638824
2019-01-28 23:01:33:133,0.854675,0.038895,0.083130,0.202560,1.392639,4.618698
2019-01-28 23:01:33:133,0.854675,0.038895,0.083130,-0.095352,0.364929,6.998352
2019-01-28 23:01:33:133,0.854675,0.038895,0.083130,0.239655,-0.391205,10.165253
2019-01-28 23:01:33:133,0.854675,0.038895,0.083130,1.145340,-0.604172,12.585587
2019-01-28 23:01:33:133,0.854675,0.038895,0.083130,1.341553,-0.247635,12.792572
2019-01-28 23:01:33:133,0.854675,0.038895,0.083130,0.506454,0.418762,11.452591
2019-01-28 23:01:33:133,0.854675,0.038895,0.083130,-0.549988,1.609207,10.586395
2019-01-28 23:01:33:133,0.854675,0.038895,0.083130,-1.018982,2.784073,9.628067
2019-01-28 23:01:33:133,-0.171143,0.151840,0.116364,-1.018982,2.784073,9.628067
2019-01-28 23:01:33:133,-0.171143,0.151840,0.116364,-0.530838,3.180084,8.763062
2019-01-28 23:01:33:133,-0.171143,0.151840,0.116364,-0.272415,2.786469,8.968842
2019-01-28 23:01:33:133,-0.171143,0.151840,0.116364,-0.241318,1.599625,10.853195
2019-01-28 23:01:33:133,-0.171143,0.151840,0.116364,0.532776,-0.391205,13.563065
2019-01-28 23:01:33:133,-0.171143,0.151840,0.116364,1.615524,-1.707260,15.592178
2019-01-28 23:01:33:133,-0.171143,0.151840,0.116364,1.629883,-0.728592,14.357483
2019-01-28 23:01:33:133,-0.171143,0.151840,0.116364,0.677536,1.307709,11.092468
2019-01-28 23:01:33:133,-0.171143,0.151840,0.116364,-0.119278,2.908493,8.350296
2019-01-28 23:01:33:133,-0.171143,0.151840,0.116364,-0.546402,2.973099,7.476913
2019-01-28 23:01:33:133,-0.091492,0.012497,-0.018387,-0.546402,2.973099,7.476913
2019-01-28 23:01:33:133,-0.091492,0.012497,-0.018387,-0.516479,2.006409,9.252396
2019-01-28 23:01:33:133,-0.091492,0.012497,-0.018387,0.200165,0.656860,11.182205
2019-01-28 23:01:33:133,-0.091492,0.012497,-0.018387,1.186020,-0.323013,11.793564
2019-01-28 23:01:33:133,-0.091492,0.012497,-0.018387,1.233871,-0.205765,10.351898
2019-01-28 23:01:33:133,-0.091492,0.012497,-0.018387,0.713440,0.689163,8.609924
2019-01-28 23:01:33:133,-0.091492,0.012497,-0.018387,0.094894,1.397430,7.281906
2019-01-28 23:01:33:133,-0.091492,0.012497,-0.018387,-0.164734,1.706100,7.071335
2019-01-28 23:01:33:133,-0.091492,0.012497,-0.018387,-0.106110,1.734818,8.180405
2019-01-28 23:01:33:133,-0.091492,0.012497,-0.018387,0.517227,1.378296,9.194977
2019-01-28 23:01:34:134,-0.091492,0.012497,-0.018387,0.767273,1.136612,9.733353
2019-01-28 23:01:34:134,0.107101,-0.048508,-0.068970,0.767273,1.136612,9.733353
2019-01-28 23:01:34:134,0.107101,-0.048508,-0.068970,0.514832,1.022964,9.899658
2019-01-28 23:01:34:134,0.107101,-0.048508,-0.068970,0.309052,0.491760,10.987183
2019-01-28 23:01:34:134,0.107101,-0.048508,-0.068970,0.118820,0.370911,11.746918
2019-01-28 23:01:34:134,0.107101,-0.048508,-0.068970,0.549515,0.620956,11.246811
2019-01-28 23:01:34:134,0.107101,-0.048508,-0.068970,0.598587,1.034927,9.404327
2019-01-28 23:01:34:134,0.107101,-0.048508,-0.068970,0.158295,1.746796,7.570236
2019-01-28 23:01:34:134,0.107101,-0.048508,-0.068970,0.099670,2.386871,6.195557
2019-01-28 23:01:34:134,0.107101,-0.048508,-0.068970,0.141541,2.161942,6.203934
2019-01-28 23:01:34:134,0.107101,-0.048508,-0.068970,-0.161148,1.106705,7.965057
2019-01-28 23:01:34:134,-0.012802,0.157822,-0.141479,-0.161148,1.106705,7.965057
2019-01-28 23:01:34:134,-0.012802,0.157822,-0.141479,0.475357,-0.015533,10.551697
2019-01-28 23:01:34:134,-0.012802,0.157822,-0.141479,1.461197,-0.191406,11.457382
2019-01-28 23:01:34:134,-0.012802,0.157822,-0.141479,1.419327,0.242889,9.995361
2019-01-28 23:01:34:134,-0.012802,0.157822,-0.141479,0.265976,0.844696,8.588379
2019-01-28 23:01:34:134,-0.012802,0.157822,-0.141479,-1.312103,1.629532,8.553696
2019-01-28 23:01:34:134,-0.012802,0.157822,-0.141479,-1.224762,1.707306,9.468948
2019-01-28 23:01:34:134,-0.012802,0.157822,-0.141479,-0.040314,0.827942,10.009720
2019-01-28 23:01:34:134,-0.012802,0.157822,-0.141479,0.413132,0.175903,10.222687
2019-01-28 23:01:34:134,-0.012802,0.157822,-0.141479,0.596191,0.153168,9.780014
2019-01-28 23:01:34:134,-0.012802,0.157822,-0.141479,0.462189,0.287155,9.181808
2019-01-28 23:01:34:134,-0.128815,0.153244,-0.350388,0.462189,0.287155,9.181808
2019-01-28 23:01:34:134,-0.128815,0.153244,-0.350388,-0.192261,0.637711,9.194962
2019-01-28 23:01:34:134,-0.128815,0.153244,-0.350388,-0.652878,1.336426,9.740524
2019-01-28 23:01:34:134,-0.128815,0.153244,-0.350388,-0.426758,1.710892,10.354294
2019-01-28 23:01:34:134,-0.128815,0.153244,-0.350388,-0.021164,1.161743,10.885498
2019-01-28 23:01:34:134,-0.128815,0.153244,-0.350388,-0.031937,0.281189,11.667953
2019-01-28 23:01:34:134,-0.128815,0.153244,-0.350388,-0.357361,0.367325,12.385788
2019-01-28 23:01:34:134,-0.128815,0.153244,-0.350388,-0.000824,0.888962,11.858185
2019-01-28 23:01:34:134,-0.128815,0.153244,-0.350388,0.216919,0.967926,10.597153
2019-01-28 23:01:34:134,-0.128815,0.153244,-0.350388,-0.194641,1.061249,9.718994
2019-01-28 23:01:34:134,-0.128815,0.153244,-0.350388,-0.313095,0.893753,9.368439
2019-01-28 23:01:34:134,-0.238220,0.039383,-0.272629,-0.313095,0.893753,9.368439
2019-01-28 23:01:34:134,-0.238220,0.039383,-0.272629,-0.144394,0.203415,9.744125
2019-01-28 23:01:34:134,-0.238220,0.039383,-0.272629,-0.133636,-0.397186,10.344711
2019-01-28 23:01:34:134,-0.238220,0.039383,-0.272629,-0.139618,-0.259598,10.938141
2019-01-28 23:01:34:134,-0.238220,0.039383,-0.272629,-0.378906,0.290756,10.780212
2019-01-28 23:01:34:134,-0.238220,0.039383,-0.272629,-0.559555,0.737015,10.499054
2019-01-28 23:01:34:134,-0.238220,0.039383,-0.272629,-0.429138,0.714279,10.536148
2019-01-28 23:01:34:134,-0.238220,0.039383,-0.272629,0.003967,-0.272766,11.713409
2019-01-28 23:01:34:134,-0.238220,0.039383,-0.272629,0.365280,-1.177246,13.015106
2019-01-28 23:01:34:134,-0.238220,0.039383,-0.272629,0.123596,-0.124405,12.940933
2019-01-28 23:01:34:134,-0.037430,-0.275375,-0.164444,0.123596,-0.124405,12.940933
2019-01-28 23:01:34:134,-0.037430,-0.275375,-0.164444,-0.241302,1.574509,11.269547
2019-01-28 23:01:34:134,-0.037430,-0.275375,-0.164444,-0.311905,0.976303,10.213120
2019-01-28 23:01:34:134,-0.037430,-0.275375,-0.164444,-0.500931,-0.345749,9.611313
2019-01-28 23:01:34:134,-0.037430,-0.275375,-0.164444,0.050629,-0.431885,9.721390
2019-01-28 23:01:34:134,-0.037430,-0.275375,-0.164444,0.346130,0.211792,8.411316
2019-01-28 23:01:34:134,-0.037430,-0.275375,-0.164444,0.111633,0.550369,6.314011
2019-01-28 23:01:34:134,-0.037430,-0.275375,-0.164444,-0.150375,0.471420,4.964462
2019-01-28 23:01:34:134,-0.037430,-0.275375,-0.164444,-0.514099,0.812393,4.877121
2019-01-28 23:01:34:134,-0.037430,-0.275375,-0.164444,0.148727,0.640106,5.635635
2019-01-28 23:01:34:134,-0.037430,-0.275375,-0.164444,0.598572,0.190262,6.366653
2019-01-28 23:01:35:135,0.246201,-0.104523,-0.053696,0.598572,0.190262,6.366653
2019-01-28 23:01:35:135,0.246201,-0.104523,-0.053696,0.159500,0.149582,7.397949
2019-01-28 23:01:35:135,0.246201,-0.104523,-0.053696,0.249222,0.165131,8.711609
2019-01-28 23:01:35:135,0.246201,-0.104523,-0.053696,0.421509,-0.157898,9.837433
2019-01-28 23:01:35:135,0.246201,-0.104523,-0.053696,-0.046295,-0.266785,10.930954
2019-01-28 23:01:35:135,0.246201,-0.104523,-0.053696,-0.270020,0.136414,11.882111
2019-01-28 23:01:35:135,0.246201,-0.104523,-0.053696,-0.413589,0.660446,11.713409
2019-01-28 23:01:35:135,0.246201,-0.104523,-0.053696,-0.819183,1.283783,10.436844
2019-01-28 23:01:35:135,0.246201,-0.104523,-0.053696,-0.998642,1.660645,9.613708
2019-01-28 23:01:35:135,0.246201,-0.104523,-0.053696,-0.368134,1.213181,9.831451
2019-01-28 23:01:35:135,-0.467407,-0.095428,0.123016,-0.368134,1.213181,9.831451
2019-01-28 23:01:35:135,-0.467407,-0.095428,0.123016,-0.082184,0.394852,11.029068
2019-01-28 23:01:35:135,-0.467407,-0.095428,0.123016,0.136765,0.086166,12.900253
2019-01-28 23:01:35:135,-0.467407,-0.095428,0.123016,0.297089,-0.197388,14.670944
2019-01-28 23:01:35:135,-0.467407,-0.095428,0.123016,0.513626,-1.032486,15.395966
2019-01-28 23:01:35:135,-0.467407,-0.095428,0.123016,0.459793,-0.641251,14.795364
2019-01-28 23:01:35:135,-0.467407,-0.095428,0.123016,0.259995,0.996643,12.814117
2019-01-28 23:01:35:135,-0.467407,-0.095428,0.123016,0.036270,1.446487,10.056381
2019-01-28 23:01:35:135,-0.467407,-0.095428,0.123016,0.053009,0.770508,8.300049
2019-01-28 23:01:35:135,-0.467407,-0.095428,0.123016,0.123596,0.740601,7.716202
2019-01-28 23:01:35:135,-0.467407,-0.095428,0.123016,0.727798,0.964340,7.183807
2019-01-28 23:01:35:135,0.545212,0.139496,0.027054,0.727798,0.964340,7.183807
2019-01-28 23:01:35:135,0.545212,0.139496,0.027054,1.120209,0.381683,6.288879
2019-01-28 23:01:35:135,0.545212,0.139496,0.027054,1.109451,-0.350525,5.811523
2019-01-28 23:01:35:135,0.545212,0.139496,0.027054,0.855804,-0.205765,6.503036
2019-01-28 23:01:35:135,0.545212,0.139496,0.027054,0.589005,0.247681,7.450592
2019-01-28 23:01:35:135,0.545212,0.139496,0.027054,0.374847,-0.126801,8.026077
2019-01-28 23:01:35:135,0.545212,0.139496,0.027054,-0.092957,-0.284729,9.424667
2019-01-28 23:01:35:135,0.545212,0.139496,0.027054,-0.303528,0.953568,10.625870
2019-01-28 23:01:35:135,0.545212,0.139496,0.027054,-0.134827,1.786270,10.319595
2019-01-28 23:01:35:135,0.545212,0.139496,0.027054,0.054214,1.567322,9.850601
2019-01-28 23:01:35:135,0.007904,-0.128784,0.037872,0.054214,1.567322,9.850601
2019-01-28 23:01:35:135,0.007904,-0.128784,0.037872,0.377243,0.832733,10.621094
2019-01-28 23:01:35:135,0.007904,-0.128784,0.037872,0.754105,0.187866,12.041229
2019-01-28 23:01:35:135,0.007904,-0.128784,0.037872,0.880936,-0.261993,12.199158
2019-01-28 23:01:35:135,0.007904,-0.128784,0.037872,0.612930,-0.122025,11.069748
2019-01-28 23:01:35:135,0.007904,-0.128784,0.037872,0.084122,0.622162,9.448608
2019-01-28 23:01:35:135,0.007904,-0.128784,0.037872,0.023102,1.246689,7.561859
2019-01-28 23:01:35:135,0.007904,-0.128784,0.037872,0.233673,1.338806,6.200348
2019-01-28 23:01:35:135,0.007904,-0.128784,0.037872,0.616531,1.073212,5.934738
2019-01-28 23:01:35:135,0.007904,-0.128784,0.037872,0.874954,0.722656,6.710022
2019-01-28 23:01:35:135,0.007904,-0.128784,0.037872,0.550720,0.744202,8.083496
2019-01-28 23:01:35:135,-0.014221,0.039810,-0.086502,0.550720,0.744202,8.083496
2019-01-28 23:01:35:135,-0.014221,0.039810,-0.086502,0.618912,0.737015,9.728561
2019-01-28 23:01:35:135,-0.014221,0.039810,-0.086502,0.809143,0.422363,11.210922
2019-01-28 23:01:35:135,-0.014221,0.039810,-0.086502,0.210938,0.698730,12.695663
2019-01-28 23:01:35:135,-0.014221,0.039810,-0.086502,-0.345398,1.590057,13.267548
2019-01-28 23:01:35:135,-0.014221,0.039810,-0.086502,-0.326248,2.408401,12.075928
2019-01-28 23:01:35:135,-0.014221,0.039810,-0.086502,0.352127,2.238510,10.380615
2019-01-28 23:01:35:135,-0.014221,0.039810,-0.086502,0.846237,1.310089,9.110031
2019-01-28 23:01:35:135,-0.014221,0.039810,-0.086502,1.268570,0.441498,8.828873
2019-01-28 23:01:35:135,-0.014221,0.039810,-0.086502,1.647827,0.014389,8.755875
2019-01-28 23:01:36:136,0.056396,0.070175,-0.263580,1.647827,0.014389,8.755875
2019-01-28 23:01:36:136,0.056396,0.070175,-0.263580,1.982819,-0.429489,8.298859
2019-01-28 23:01:36:136,0.056396,0.070175,-0.263580,1.164474,-0.388809,8.026062
2019-01-28 23:01:36:136,0.056396,0.070175,-0.263580,0.091293,0.721466,8.363464
2019-01-28 23:01:36:136,0.056396,0.070175,-0.263580,-0.017578,1.680984,8.404144
2019-01-28 23:01:36:136,0.056396,0.070175,-0.263580,0.225296,1.676193,8.658966
2019-01-28 23:01:36:136,0.056396,0.070175,-0.263580,-0.168320,1.432129,9.912811
2019-01-28 23:01:36:136,0.056396,0.070175,-0.263580,-0.126450,1.299332,11.716995
2019-01-28 23:01:36:136,0.056396,0.070175,-0.263580,0.350922,0.862640,13.320190
2019-01-28 23:01:36:136,0.056396,0.070175,-0.263580,0.738556,0.240509,14.219894
2019-01-28 23:01:36:136,0.056396,0.070175,-0.263580,0.543549,0.398438,14.552490
2019-01-28 23:01:36:136,0.083099,0.015320,-0.335968,0.543549,0.398438,14.552490
2019-01-28 23:01:36:136,0.083099,0.015320,-0.335968,0.280334,1.243103,13.821487
2019-01-28 23:01:36:136,0.083099,0.015320,-0.335968,0.238464,1.371109,12.473129
2019-01-28 23:01:36:136,0.083099,0.015320,-0.335968,0.281525,1.043304,10.835251
2019-01-28 23:01:36:136,0.083099,0.015320,-0.335968,0.254013,0.886566,9.508423
2019-01-28 23:01:36:136,0.083099,0.015320,-0.335968,0.659592,0.536011,8.392166
2019-01-28 23:01:36:136,0.083099,0.015320,-0.335968,0.731384,-0.075363,7.481705
2019-01-28 23:01:36:136,0.083099,0.015320,-0.335968,0.361694,-0.391205,7.021088
2019-01-28 23:01:36:136,0.083099,0.015320,-0.335968,0.208557,-0.254822,6.745911
2019-01-28 23:01:36:136,0.083099,0.015320,-0.335968,0.372452,-0.014343,6.339127
2019-01-28 23:01:36:136,-0.274323,-0.053223,-0.345444,0.372452,-0.014343,6.339127
2019-01-28 23:01:36:136,-0.274323,-0.053223,-0.345444,0.420319,0.163940,5.548309
2019-01-28 23:01:36:136,-0.274323,-0.053223,-0.345444,0.318619,0.622162,4.914215
2019-01-28 23:01:36:136,-0.274323,-0.053223,-0.345444,-0.013992,1.485962,5.184601
2019-01-28 23:01:36:136,-0.274323,-0.053223,-0.345444,0.330582,1.865234,6.300842
2019-01-28 23:01:36:136,-0.274323,-0.053223,-0.345444,0.484924,0.961945,8.996353
2019-01-28 23:01:36:136,-0.274323,-0.053223,-0.345444,-0.133636,0.297928,12.879913
2019-01-28 23:01:36:136,-0.274323,-0.053223,-0.345444,-0.466232,0.498932,17.020691
2019-01-28 23:01:36:136,-0.274323,-0.053223,-0.345444,-0.701935,0.446289,17.797165
2019-01-28 23:01:36:136,-0.274323,-0.053223,-0.345444,-0.898132,0.850677,15.161469
2019-01-28 23:01:36:136,-0.274323,-0.053223,-0.345444,-0.926865,1.871216,12.185989
2019-01-28 23:01:36:136,0.192383,-0.260300,0.031265,-0.926865,1.871216,12.185989
2019-01-28 23:01:36:136,0.192383,-0.260300,0.031265,-0.274811,2.517273,9.564651
2019-01-28 23:01:36:136,0.192383,-0.260300,0.031265,0.798370,2.059052,7.626465
2019-01-28 23:01:36:136,0.192383,-0.260300,0.031265,0.880936,0.967926,7.512817
2019-01-28 23:01:36:136,0.192383,-0.260300,0.031265,1.209946,0.014389,9.369644
2019-01-28 23:01:36:136,0.192383,-0.260300,0.031265,1.444443,-1.088715,11.271942
2019-01-28 23:01:36:136,0.192383,-0.260300,0.031265,0.864182,-1.556519,12.290085
2019-01-28 23:01:36:136,0.192383,-0.260300,0.031265,0.367676,-0.527603,11.435837
2019-01-28 23:01:36:136,0.192383,-0.260300,0.031265,-0.063049,1.206009,9.215302
2019-01-28 23:01:36:136,0.192383,-0.260300,0.031265,0.096085,2.035126,7.150299
2019-01-28 23:01:36:136,-0.021484,-0.190964,0.156738,0.096085,2.035126,7.150299
2019-01-28 23:01:36:136,-0.021484,-0.190964,0.156738,0.148727,1.889160,6.389389
2019-01-28 23:01:36:136,-0.021484,-0.190964,0.156738,0.037460,1.683380,7.621689
2019-01-28 23:01:36:136,-0.021484,-0.190964,0.156738,0.801971,1.154556,9.167450
2019-01-28 23:01:36:136,-0.021484,-0.190964,0.156738,1.529388,-0.220123,10.646210
2019-01-28 23:01:36:136,-0.021484,-0.190964,0.156738,1.439651,-1.022919,11.910828
2019-01-28 23:01:36:136,-0.021484,-0.190964,0.156738,1.331970,-0.135178,11.974228
2019-01-28 23:01:36:136,-0.021484,-0.190964,0.156738,1.331985,1.085175,10.088684
2019-01-28 23:01:36:136,-0.021484,-0.190964,0.156738,1.558105,1.235916,8.107422
2019-01-28 23:01:36:136,-0.021484,-0.190964,0.156738,0.644043,0.581482,8.937744
2019-01-28 23:01:36:136,-0.021484,-0.190964,0.156738,0.207352,0.049072,10.403336
2019-01-28 23:01:36:136,0.092621,0.121231,-0.167252,0.207352,0.049072,10.403336
2019-01-28 23:01:36:136,0.092621,0.121231,-0.167252,1.208755,-0.381638,10.572037
2019-01-28 23:01:36:136,0.092621,0.121231,-0.167252,1.436066,-0.336182,10.149704
2019-01-28 23:01:36:136,0.092621,0.121231,-0.167252,0.470566,0.233337,10.063553
2019-01-28 23:01:36:136,0.092621,0.121231,-0.167252,0.057800,0.632935,10.335144
2019-01-28 23:01:36:136,0.092621,0.121231,-0.167252,0.330582,0.394836,10.405731
2019-01-28 23:01:36:136,0.092621,0.121231,-0.167252,0.804367,0.009598,10.489487
2019-01-28 23:01:36:136,0.092621,0.121231,-0.167252,0.967072,-0.044250,10.146118
2019-01-28 23:01:36:136,0.092621,0.121231,-0.167252,0.720612,0.447479,9.046600
2019-01-28 23:01:36:136,0.092621,0.121231,-0.167252,0.620117,0.782471,8.106232
2019-01-28 23:01:36:136,0.092621,0.121231,-0.167252,0.739746,0.410385,7.921982
2019-01-28 23:01:36:136,0.092621,0.121231,-0.167252,0.285110,0.254868,8.711624
2019-01-28 23:01:37:137,0.092621,0.121231,-0.167252,0.304260,0.593445,9.686691
2019-01-28 23:01:37:137,0.092621,0.121231,-0.167252,0.898880,0.640106,9.337341
2019-01-28 23:01:37:137,0.092621,0.121231,-0.167252,0.593796,0.670013,8.900650
2019-01-28 23:01:37:137,0.092621,0.121231,-0.167252,0.122406,0.939209,9.188980
2019-01-28 23:01:37:137,0.092621,0.121231,-0.167252,0.248032,0.646088,9.701050
2019-01-28 23:01:37:137,0.092621,0.121231,-0.167252,0.055405,-0.112442,10.068344
