Time,Gx,Gy,Gz,Ax,Ay,Az
2019-01-28 22:24:39:2439,-0.036087,0.139496,-0.398224,0.000000,0.000000,0.000000
2019-01-28 22:24:39:2439,-0.036087,0.139496,-0.398224,-1.213989,1.604416,10.746704
2019-01-28 22:24:39:2439,-0.036087,0.139496,-0.398224,-1.083588,1.824554,9.716599
2019-01-28 22:24:39:2439,-0.036087,0.139496,-0.398224,-0.960358,2.146393,9.147110
2019-01-28 22:24:39:2439,-0.036087,0.139496,-0.398224,-1.035721,2.379684,9.196152
2019-01-28 22:24:39:2439,-0.036087,0.139496,-0.398224,-0.913696,2.367722,9.516800
2019-01-28 22:24:39:2439,-0.036087,0.139496,-0.398224,-0.844299,2.105713,9.800354
2019-01-28 22:24:39:2439,-0.036087,0.139496,-0.398224,-1.145798,1.980087,9.187790
2019-01-28 22:24:39:2439,-0.036087,0.139496,-0.398224,-1.686569,2.031525,8.856384
2019-01-28 22:24:39:2439,-0.036087,0.139496,-0.398224,-1.738022,1.847290,9.455780
2019-01-28 22:24:39:2439,-0.036087,0.139496,-0.398224,-1.403030,1.608002,10.116196
2019-01-28 22:24:39:2439,-0.036087,0.139496,-0.398224,-1.117081,1.417770,9.796753
2019-01-28 22:24:39:2439,-0.036087,0.139496,-0.398224,-1.346802,1.532623,9.453384
2019-01-28 22:24:39:2439,-0.036087,0.139496,-0.398224,-1.486771,1.646286,9.605331
2019-01-28 22:24:39:2439,-0.036087,0.139496,-0.398224,-1.638718,1.947784,9.513214
2019-01-28 22:24:39:2439,-0.036087,0.139496,-0.398224,-1.669830,1.995636,9.082504
2019-01-28 22:24:39:2439,-0.036087,0.139496,-0.398224,-1.696152,2.121262,9.129166
2019-01-28 22:24:39:2439,-0.036087,0.139496,-0.398224,-1.928253,2.184677,8.990372
2019-01-28 22:24:39:2439,-0.036087,0.139496,-0.398224,-1.642303,1.916687,8.977219
2019-01-28 22:24:39:2439,-0.036087,0.139496,-0.398224,-1.639923,1.957352,9.689087
2019-01-28 22:24:39:2439,-0.036087,0.139496,-0.398224,-1.400635,2.038712,10.052795
2019-01-28 22:24:39:2439,-0.036087,0.139496,-0.398224,-1.242706,2.076996,9.278717
2019-01-28 22:24:39:2439,-0.036087,0.139496,-0.398224,-1.551376,2.228943,8.626678
2019-01-28 22:24:39:2439,-0.036087,0.139496,-0.398224,-1.915085,2.520859,8.649399
2019-01-28 22:24:39:2439,-0.036087,0.139496,-0.398224,-2.259659,2.744598,9.014313
2019-01-28 22:24:39:2439,-0.036087,0.139496,-0.398224,-2.145996,2.942001,9.126770
2019-01-28 22:24:39:2439,-0.036087,0.139496,-0.398224,-2.896149,3.120270,10.165253
2019-01-28 22:24:39:2439,-0.036087,0.139496,-0.398224,-1.690170,3.127441,9.969055
2019-01-28 22:24:39:2439,-0.036087,0.139496,-0.398224,-1.565735,2.679993,9.942734
2019-01-28 22:24:39:2439,-0.036087,0.139496,-0.398224,-1.314484,2.333023,10.162857
2019-01-28 22:24:39:2439,-0.036087,0.139496,-0.398224,-1.075211,1.878387,10.087494
2019-01-28 22:24:39:2439,-0.036087,0.139496,-0.398224,-1.087173,1.811386,9.821884
2019-01-28 22:24:39:2439,-0.036087,0.139496,-0.398224,-1.075211,1.995636,9.726166
2019-01-28 22:24:39:2439,-0.036087,0.139496,-0.398224,-1.385071,2.231323,9.589783
2019-01-28 22:24:39:2439,-0.036087,0.139496,-0.398224,-2.262054,2.523254,9.445007
2019-01-28 22:24:39:2439,-0.036087,0.139496,-0.398224,-1.632736,2.395248,9.492874
2019-01-28 22:24:39:2439,-0.036087,0.139496,-0.398224,-1.361160,2.236115,9.096863
2019-01-28 22:24:39:2439,-0.036087,0.139496,-0.398224,-1.474808,2.366531,8.542923
2019-01-28 22:24:39:2439,-0.036087,0.139496,-0.398224,-1.717682,2.471817,8.278519
2019-01-28 22:24:39:2439,-0.036087,0.139496,-0.398224,-2.217789,2.641708,8.557281
2019-01-28 22:24:40:2440,-0.036087,0.139496,-0.398224,-2.250092,2.714691,9.002335
2019-01-28 22:24:40:2440,-0.036087,0.139496,-0.398224,-1.837326,2.695541,9.252396
2019-01-28 22:24:40:2440,-0.036087,0.139496,-0.398224,-1.752380,2.711090,9.003540
2019-01-28 22:24:40:2440,-0.036087,0.139496,-0.398224,-2.129242,2.644089,7.165848
2019-01-28 22:24:40:2440,-0.036087,0.139496,-0.398224,-2.336227,2.659653,9.188980
2019-01-28 22:24:40:2440,-0.036087,0.139496,-0.398224,-1.916290,2.656052,9.987000
2019-01-28 22:24:40:2440,-0.036087,0.139496,-0.398224,-1.675812,2.398834,10.095871
2019-01-28 22:24:40:2440,-0.036087,0.139496,-0.398224,-1.675812,2.437119,9.707031
2019-01-28 22:24:40:2440,-0.036087,0.139496,-0.398224,-1.424561,2.502914,9.010712
2019-01-28 22:24:40:2440,-0.036087,0.139496,-0.398224,-1.696152,2.547180,8.535736
2019-01-28 22:24:40:2440,-0.036087,0.139496,-0.398224,-1.875610,2.708694,8.550095
2019-01-28 22:24:40:2440,-0.036087,0.139496,-0.398224,-1.931839,2.682388,8.739136
2019-01-28 22:24:40:2440,-0.036087,0.139496,-0.398224,-2.013199,2.647690,8.992767
2019-01-28 22:24:40:2440,-0.036087,0.139496,-0.398224,-2.041916,2.591446,9.394760
2019-01-28 22:24:40:2440,-0.036087,0.139496,-0.398224,-1.891159,2.504120,9.399551
2019-01-28 22:24:40:2440,-0.036087,0.139496,-0.398224,-1.699738,2.428741,9.052597
2019-01-28 22:24:40:2440,-0.036087,0.139496,-0.398224,-1.544205,2.292343,9.110016
2019-01-28 22:24:40:2440,-0.036087,0.139496,-0.398224,-1.540619,2.371323,9.278717
2019-01-28 22:24:40:2440,-0.036087,0.139496,-0.398224,-1.576508,2.443100,9.346909
2019-01-28 22:24:40:2440,-0.036087,0.139496,-0.398224,-1.732040,2.549576,9.471329
2019-01-28 22:24:40:2440,-0.036087,0.139496,-0.398224,-1.666245,2.547180,9.605331
2019-01-28 22:24:40:2440,-0.036087,0.139496,-0.398224,-1.154175,2.666824,9.689087
2019-01-28 22:24:40:2440,-0.036087,0.139496,-0.398224,-1.592056,2.231339,10.030060
2019-01-28 22:24:40:2440,-0.036087,0.139496,-0.398224,-1.393448,2.520859,9.668747
2019-01-28 22:24:40:2440,-0.036087,0.139496,-0.398224,-1.368332,2.614182,9.317001
2019-01-28 22:24:40:2440,-0.036087,0.139496,-0.398224,-1.254669,2.693146,8.855194
2019-01-28 22:24:40:2440,-0.036087,0.139496,-0.398224,-0.873016,2.544800,8.785797
2019-01-28 22:24:40:2440,-0.036087,0.139496,-0.398224,-0.886185,2.245697,8.954483
2019-01-28 22:24:40:2440,-0.036087,0.139496,-0.398224,-0.941208,2.341400,9.060974
2019-01-28 22:24:40:2440,-0.036087,0.139496,-0.398224,-1.662643,2.362930,9.342133
2019-01-28 22:24:40:2440,-0.036087,0.139496,-0.398224,-1.947403,2.463440,9.327774
2019-01-28 22:24:40:2440,-0.036087,0.139496,-0.398224,-1.660263,2.763733,8.967651
2019-01-28 22:24:40:2440,-0.036087,0.139496,-0.398224,-2.558762,2.325851,8.511810
2019-01-28 22:24:40:2440,-0.036087,0.139496,-0.398224,-2.874619,2.409607,9.391174
2019-01-28 22:24:40:2440,-0.036087,0.139496,-0.398224,-1.826553,2.571106,9.636444
2019-01-28 22:24:40:2440,-0.036087,0.139496,-0.398224,-1.114700,2.614182,9.672333
2019-01-28 22:24:40:2440,-0.036087,0.139496,-0.398224,-1.142212,2.264832,9.665161
2019-01-28 22:24:40:2440,-0.036087,0.139496,-0.398224,-0.916092,2.227737,9.635254
2019-01-28 22:24:40:2440,-0.036087,0.139496,-0.398224,-0.986679,2.190659,9.382797
2019-01-28 22:24:40:2440,-0.036087,0.139496,-0.398224,-1.113495,1.933426,9.711807
2019-01-28 22:24:40:2440,-0.036087,0.139496,-0.398224,-0.989059,1.908295,9.851791
2019-01-28 22:24:40:2440,-0.036087,0.139496,-0.398224,-0.887375,1.951370,9.886490
2019-01-28 22:24:40:2440,-0.036087,0.139496,-0.398224,-0.663651,1.998032,9.899643
2019-01-28 22:24:40:2440,-0.036087,0.139496,-0.398224,-0.386078,2.024353,10.068344
2019-01-28 22:24:40:2440,-0.036087,0.139496,-0.398224,-0.207809,2.008804,10.320786
2019-01-28 22:24:40:2440,-0.036087,0.139496,-0.398224,-0.454269,2.039902,10.391373
2019-01-28 22:24:40:2440,-0.036087,0.139496,-0.398224,-0.551178,2.115280,9.783600
2019-01-28 22:24:40:2440,-0.036087,0.139496,-0.398224,-0.942413,2.094940,9.041824
2019-01-28 22:24:40:2440,-0.036087,0.139496,-0.398224,-1.406616,2.076996,8.747513
2019-01-28 22:24:40:2440,-0.036087,0.139496,-0.398224,-1.626755,2.049484,8.710419
2019-01-28 22:24:40:2440,-0.036087,0.139496,-0.398224,-1.656662,1.970520,8.532150
2019-01-28 22:24:40:2440,-0.036087,0.139496,-0.398224,-1.729645,1.837708,8.581207
2019-01-28 22:24:40:2440,-0.036087,0.139496,-0.398224,-1.834930,1.745590,8.998764
2019-01-28 22:24:40:2440,-0.036087,0.139496,-0.398224,-2.123276,1.788666,9.563461
2019-01-28 22:24:40:2440,-0.036087,0.139496,-0.398224,-2.053879,1.942993,9.602951
2019-01-28 22:24:40:2440,-0.036087,0.139496,-0.398224,-1.636322,1.944199,9.238037
2019-01-28 22:24:40:2440,-0.036087,0.139496,-0.398224,-1.160156,1.922668,8.623077
2019-01-28 22:24:40:2440,-0.036087,0.139496,-0.398224,-0.658859,1.914291,8.574036
2019-01-28 22:24:40:2440,-0.036087,0.139496,-0.398224,-0.603821,1.750381,9.296661
2019-01-28 22:24:40:2440,-0.036087,0.139496,-0.398224,-0.728256,1.342407,10.070740
2019-01-28 22:24:40:2440,-0.036087,0.139496,-0.398224,-1.192459,1.158142,11.289886
2019-01-28 22:24:40:2440,-0.036087,0.139496,-0.398224,-1.151779,1.880783,9.981018
2019-01-28 22:24:40:2440,-0.036087,0.139496,-0.398224,-1.873215,1.374695,9.574234
2019-01-28 22:24:40:2440,-0.036087,0.139496,-0.398224,-2.002426,1.756363,8.792969
2019-01-28 22:24:40:2440,-0.036087,0.139496,-0.398224,-1.751190,2.079391,9.453384
2019-01-28 22:24:40:2440,-0.036087,0.139496,-0.398224,-1.590866,1.814987,10.356674
2019-01-28 22:24:40:2440,-0.036087,0.139496,-0.398224,-1.474808,1.732422,10.467941
2019-01-28 22:24:40:2440,-0.036087,0.139496,-0.398224,-0.929245,1.600830,10.002548
2019-01-28 22:24:40:2440,-0.036087,0.139496,-0.398224,-0.908905,1.226349,9.769241
2019-01-28 22:24:40:2440,-0.036087,0.139496,-0.398224,-0.636124,1.611588,9.788376
2019-01-28 22:24:40:2440,-0.036087,0.139496,-0.398224,-0.919678,1.891556,9.403137
2019-01-28 22:24:40:2440,-0.036087,0.139496,-0.398224,-0.894547,2.059052,9.285889
2019-01-28 22:24:40:2440,-0.036087,0.139496,-0.398224,-0.657669,2.024353,9.210526
2019-01-28 22:24:40:2440,-0.036087,0.139496,-0.398224,-0.408813,2.081787,9.081314
2019-01-28 22:24:40:2440,-0.036087,0.139496,-0.398224,-0.209015,1.994446,9.327759
2019-01-28 22:24:40:2440,-0.036087,0.139496,-0.398224,-0.517685,1.872406,9.253586
2019-01-28 22:24:40:2440,-0.036087,0.139496,-0.398224,-0.937622,1.721664,9.212921
2019-01-28 22:24:40:2440,-0.036087,0.139496,-0.398224,-1.552582,1.721664,9.177017
2019-01-28 22:24:40:2440,-0.036087,0.139496,-0.398224,-2.110107,1.647476,9.651993
2019-01-28 22:24:40:2440,-0.036087,0.139496,-0.398224,-2.357773,1.734818,10.211914
2019-01-28 22:24:40:2440,-0.036087,0.139496,-0.398224,-3.554169,1.964539,9.915207
2019-01-28 22:24:40:2440,-0.036087,0.139496,-0.398224,-2.124466,2.115280,8.307220
2019-01-28 22:24:40:2440,-0.036087,0.139496,-0.398224,-0.870621,1.076797,10.065948
2019-01-28 22:24:40:2440,-0.036087,0.139496,-0.398224,-1.577698,1.209595,10.110229
2019-01-28 22:24:40:2440,-0.036087,0.139496,-0.398224,-1.480789,1.487167,10.466751
2019-01-28 22:24:40:2440,-0.036087,0.139496,-0.398224,-0.594254,1.605606,8.656586
2019-01-28 22:24:40:2440,-0.036087,0.139496,-0.398224,-0.284378,1.624756,7.254395
2019-01-28 22:24:40:2440,-0.036087,0.139496,-0.398224,-0.593063,1.697739,7.499649
2019-01-28 22:24:40:2440,-0.036087,0.139496,-0.398224,-0.644501,1.586472,8.435242
2019-01-28 22:24:40:2440,-0.036087,0.139496,-0.398224,-0.931641,1.806610,8.995163
2019-01-28 22:24:40:2440,-0.036087,0.139496,-0.398224,-1.805023,2.145203,9.098053
2019-01-28 22:24:40:2440,-0.036087,0.139496,-0.398224,-2.212997,2.243301,9.181808
2019-01-28 22:24:40:2440,-0.036087,0.139496,-0.398224,-1.509506,2.195450,9.899643
2019-01-28 22:24:40:2440,-0.036087,0.139496,-0.398224,0.200165,2.343796,9.936737
2019-01-28 22:24:40:2440,-0.036087,0.139496,-0.398224,-0.045090,1.274200,10.185593
2019-01-28 22:24:40:2440,-0.036087,0.139496,-0.398224,-0.063049,1.107910,10.257385
2019-01-28 22:24:40:2440,-0.036087,0.139496,-0.398224,-0.009201,1.343597,9.836243
2019-01-28 22:24:40:2440,-0.036087,0.139496,-0.398224,1.103455,2.197830,9.854187
2019-01-28 22:24:40:2440,-0.036087,0.139496,-0.398224,0.325790,2.023163,10.010925
2019-01-28 22:24:40:2440,-0.036087,0.139496,-0.398224,-1.068039,1.834122,10.146103
2019-01-28 22:24:40:2440,-0.036087,0.139496,-0.398224,-2.077805,1.367523,10.302841
2019-01-28 22:24:40:2440,-0.036087,0.139496,-0.398224,-1.838516,1.490753,11.465759
2019-01-28 22:24:40:2440,-0.036087,0.139496,-0.398224,-1.425751,1.713287,11.541122
2019-01-28 22:24:40:2440,-0.036087,0.139496,-0.398224,-0.961548,1.598434,11.191772
2019-01-28 22:24:40:2440,-0.036087,0.139496,-0.398224,-0.956757,1.113892,10.576813
2019-01-28 22:24:40:2440,-0.036087,0.139496,-0.398224,-1.048889,0.469025,9.449799
2019-01-28 22:24:40:2440,-0.036087,0.139496,-0.398224,-0.553574,1.214386,8.334747
2019-01-28 22:24:40:2440,-0.036087,0.139496,-0.398224,0.066177,1.296936,7.906433
2019-01-28 22:24:40:2440,-0.036087,0.139496,-0.398224,-1.111099,1.012192,8.919800
2019-01-28 22:24:40:2440,-0.036087,0.139496,-0.398224,-0.951981,1.913086,9.882904
2019-01-28 22:24:40:2440,-0.036087,0.139496,-0.398224,-0.961548,1.300522,9.768051
2019-01-28 22:24:40:2440,-0.036087,0.139496,-0.398224,-0.700729,0.557556,9.552704
2019-01-28 22:24:40:2440,-0.036087,0.139496,-0.398224,-1.184082,0.388870,9.823074
2019-01-28 22:24:40:2440,-0.036087,0.139496,-0.398224,-2.166336,0.092148,10.490677
2019-01-28 22:24:40:2440,-0.036087,0.139496,-0.398224,-2.569534,0.059845,10.792175
2019-01-28 22:24:40:2440,-0.036087,0.139496,-0.398224,-0.307114,0.646088,10.487091
2019-01-28 22:24:40:2440,-0.036087,0.139496,-0.398224,0.370056,0.169922,9.389984
2019-01-28 22:24:40:2440,-0.036087,0.139496,-0.398224,-0.161148,-0.104065,9.016693
2019-01-28 22:24:40:2440,-0.036087,0.139496,-0.398224,-0.992661,-0.090912,9.711823
2019-01-28 22:24:40:2440,-0.036087,0.139496,-0.398224,-1.193649,0.331436,9.509628
2019-01-28 22:24:40:2440,-0.036087,0.139496,-0.398224,-1.331238,0.622162,9.141129
2019-01-28 22:24:40:2440,-0.036087,0.139496,-0.398224,-1.629150,1.021759,8.952087
2019-01-28 22:24:40:2440,-0.036087,0.139496,-0.398224,-1.499939,1.550583,8.809723
2019-01-28 22:24:40:2440,-0.036087,0.139496,-0.398224,-0.993851,1.603210,9.141129
2019-01-28 22:24:40:2440,-0.036087,0.139496,-0.398224,-0.662445,1.200027,9.553894
2019-01-28 22:24:40:2440,-0.036087,0.139496,-0.398224,-0.770126,1.154556,9.496460
2019-01-28 22:24:40:2440,-0.036087,0.139496,-0.398224,-1.120682,1.278992,9.497665
2019-01-28 22:24:40:2440,-0.036087,0.139496,-0.398224,-1.626755,1.031326,9.124374
2019-01-28 22:24:40:2440,-0.036087,0.139496,-0.398224,-1.727249,0.447479,8.119400
2019-01-28 22:24:40:2440,-0.036087,0.139496,-0.398224,-0.370514,1.107910,8.650604
2019-01-28 22:24:40:2440,-0.036087,0.139496,-0.398224,-0.484177,0.949982,9.295471
2019-01-28 22:24:40:2440,-0.036087,0.139496,-0.398224,-0.517685,1.015778,8.771439
2019-01-28 22:24:40:2440,-0.036087,0.139496,-0.398224,-0.506912,0.636520,9.098053
2019-01-28 22:24:40:2440,-0.036087,0.139496,-0.398224,-0.193451,0.418777,9.774033
2019-01-28 22:24:40:2440,-0.036087,0.139496,-0.398224,-0.293961,0.513290,10.126968
2019-01-28 22:24:40:2440,-0.036087,0.139496,-0.398224,-1.669830,0.707108,11.706238
2019-01-28 22:24:40:2440,-0.036087,0.139496,-0.398224,-2.525253,0.264435,13.959076
2019-01-28 22:24:40:2440,-0.036087,0.139496,-0.398224,-2.167526,-0.065781,13.268753
2019-01-28 22:24:40:2440,-0.036087,0.139496,-0.398224,-0.699539,0.094543,12.808136
2019-01-28 22:24:40:2440,-0.036087,0.139496,-0.398224,-0.291565,0.301514,11.039825
2019-01-28 22:24:40:2440,-0.036087,0.139496,-0.398224,-0.914886,0.853058,9.681900
2019-01-28 22:24:40:2440,-0.036087,0.139496,-0.398224,0.129578,1.173706,8.534546
2019-01-28 22:24:40:2440,-0.036087,0.139496,-0.398224,1.433670,1.209595,7.129959
2019-01-28 22:24:40:2440,-0.036087,0.139496,-0.398224,1.769867,1.261047,7.460175
2019-01-28 22:24:40:2440,-0.036087,0.139496,-0.398224,1.114227,1.159348,8.317993
2019-01-28 22:24:40:2440,-0.036087,0.139496,-0.398224,0.169067,0.946396,9.490479
2019-01-28 22:24:40:2440,-0.036087,0.139496,-0.398224,-0.052277,1.076797,10.184402
2019-01-28 22:24:40:2440,-0.036087,0.139496,-0.398224,1.547333,1.022964,10.298050
2019-01-28 22:24:40:2440,-0.036087,0.139496,-0.398224,1.521011,1.286163,10.259766
2019-01-28 22:24:40:2440,-0.036087,0.139496,-0.398224,-0.170715,0.508499,9.837433
2019-01-28 22:24:40:2440,-0.036087,0.139496,-0.398224,-0.840714,1.439316,9.240433
2019-01-28 22:24:40:2440,-0.036087,0.139496,-0.398224,-1.209213,1.034927,8.553696
2019-01-28 22:24:40:2440,-0.036087,0.139496,-0.398224,-0.712692,1.210800,8.364655
2019-01-28 22:24:40:2440,-0.036087,0.139496,-0.398224,1.067566,1.270615,7.706635
2019-01-28 22:24:40:2440,-0.036087,0.139496,-0.398224,-0.262848,1.156952,7.807129
2019-01-28 22:24:40:2440,-0.036087,0.139496,-0.398224,-1.925858,0.953568,9.102844
2019-01-28 22:24:40:2440,-0.036087,0.139496,-0.398224,-0.608612,0.214188,9.655579
2019-01-28 22:24:40:2440,-0.036087,0.139496,-0.398224,-0.320267,-0.282333,10.406921
2019-01-28 22:24:40:2440,-0.036087,0.139496,-0.398224,-0.144409,-0.037064,10.566055
2019-01-28 22:24:40:2440,-0.036087,0.139496,-0.398224,1.103470,0.283569,10.767059
2019-01-28 22:24:40:2440,-0.036087,0.139496,-0.398224,-1.377899,-0.027496,10.991974
2019-01-28 22:24:40:2440,-0.036087,0.139496,-0.398224,0.121216,1.189255,10.816101
2019-01-28 22:24:40:2440,-0.036087,0.139496,-0.398224,0.136765,0.702316,11.051804
2019-01-28 22:24:40:2440,-0.036087,0.139496,-0.398224,-1.211609,0.674805,11.009918
2019-01-28 22:24:40:2440,-0.036087,0.139496,-0.398224,-0.295151,1.223953,9.963058
2019-01-28 22:24:40:2440,-0.036087,0.139496,-0.398224,-0.817978,0.423553,9.465363
2019-01-28 22:24:40:2440,-0.036087,0.139496,-0.398224,0.598587,0.092148,10.546906
2019-01-28 22:24:40:2440,-0.036087,0.139496,-0.398224,0.689499,-0.052628,11.128357
2019-01-28 22:24:40:2440,-0.036087,0.139496,-0.398224,0.650024,0.181885,10.549301
2019-01-28 22:24:40:2440,-0.036087,0.139496,-0.398224,-0.204224,0.646088,10.088684
2019-01-28 22:24:40:2440,0.340988,-0.125549,-0.695587,-0.204224,0.646088,10.088684
2019-01-28 22:24:40:2440,0.340988,-0.125549,-0.695587,-1.545395,1.251465,9.387589
2019-01-28 22:24:40:2440,0.340988,-0.125549,-0.695587,-3.042114,2.248093,8.073929
2019-01-28 22:24:40:2440,0.340988,-0.125549,-0.695587,-3.367538,2.651276,7.591766
2019-01-28 22:24:40:2440,0.340988,-0.125549,-0.695587,-1.988068,2.730240,7.914810
2019-01-28 22:24:40:2440,0.340988,-0.125549,-0.695587,-1.508316,2.414383,8.657776
2019-01-28 22:24:40:2440,0.340988,-0.125549,-0.695587,-0.115692,2.437119,10.270538
2019-01-28 22:24:40:2440,0.340988,-0.125549,-0.695587,-0.548782,1.989655,10.283691
2019-01-28 22:24:40:2440,0.340988,-0.125549,-0.695587,-1.263046,1.613983,9.466553
2019-01-28 22:24:40:2440,0.340988,-0.125549,-0.695587,-1.014191,0.923660,9.094467
2019-01-28 22:24:40:2440,0.340988,-0.125549,-0.695587,0.583023,0.309891,11.072128
2019-01-28 22:24:40:2440,0.220718,-0.239227,-0.421921,0.583023,0.309891,11.072128
2019-01-28 22:24:40:2440,0.220718,-0.239227,-0.421921,0.242050,2.136810,10.648605
2019-01-28 22:24:40:2440,0.220718,-0.239227,-0.421921,0.449020,1.174896,9.285889
2019-01-28 22:24:40:2440,0.220718,-0.239227,-0.421921,0.494492,1.460846,10.008530
2019-01-28 22:24:40:2440,0.220718,-0.239227,-0.421921,2.558304,3.303314,9.476120
2019-01-28 22:24:40:2440,0.220718,-0.239227,-0.421921,-1.038116,0.898529,7.887283
2019-01-28 22:24:40:2440,0.220718,-0.239227,-0.421921,-1.592056,0.751373,8.466354
2019-01-28 22:24:40:2440,0.220718,-0.239227,-0.421921,-0.663651,2.781677,10.617508
2019-01-28 22:24:40:2440,0.220718,-0.239227,-0.421921,-1.051285,2.597443,9.715408
2019-01-28 22:24:40:2440,0.220718,-0.239227,-0.421921,-0.675613,2.280396,8.369446
2019-01-28 22:24:40:2440,0.269409,0.300949,-0.310074,-0.675613,2.280396,8.369446
2019-01-28 22:24:40:2440,0.269409,0.300949,-0.310074,-0.364548,2.081787,8.048813
2019-01-28 22:24:40:2440,0.269409,0.300949,-0.310074,0.263580,2.294739,9.008331
2019-01-28 22:24:40:2440,0.269409,0.300949,-0.310074,-0.381287,1.917877,9.851791
2019-01-28 22:24:40:2440,0.269409,0.300949,-0.310074,-2.387680,0.827942,9.703445
2019-01-28 22:24:40:2440,0.269409,0.300949,-0.310074,0.599777,1.213181,10.555283
2019-01-28 22:24:40:2440,0.269409,0.300949,-0.310074,-0.011597,1.582886,9.401947
2019-01-28 22:24:40:2440,0.269409,0.300949,-0.310074,-2.352982,1.975311,8.508224
2019-01-28 22:24:40:2440,0.269409,0.300949,-0.310074,-2.918884,1.448883,9.378021
2019-01-28 22:24:40:2440,0.269409,0.300949,-0.310074,-1.434128,1.634323,10.312408
2019-01-28 22:24:40:2440,0.269409,0.300949,-0.310074,-1.339615,1.625946,9.953491
2019-01-28 22:24:40:2440,-0.310165,-0.295853,-0.214600,-1.339615,1.625946,9.953491
2019-01-28 22:24:40:2440,-0.310165,-0.295853,-0.214600,1.084320,2.852264,10.640228
2019-01-28 22:24:40:2440,-0.310165,-0.295853,-0.214600,0.474152,0.588654,11.306625
2019-01-28 22:24:40:2440,-0.310165,-0.295853,-0.214600,-0.008011,0.539612,9.927170
2019-01-28 22:24:40:2440,-0.310165,-0.295853,-0.214600,-0.736633,0.081390,9.205734
2019-01-28 22:24:40:2440,-0.310165,-0.295853,-0.214600,-0.971115,0.473801,9.123184
2019-01-28 22:24:40:2440,-0.310165,-0.295853,-0.214600,-1.286972,1.797028,9.890091
2019-01-28 22:24:40:2440,-0.310165,-0.295853,-0.214600,-1.369522,1.634323,10.531357
2019-01-28 22:24:40:2440,-0.310165,-0.295853,-0.214600,-1.198441,1.289749,10.347107
2019-01-28 22:24:40:2440,-0.310165,-0.295853,-0.214600,-0.829941,1.091156,9.790787
2019-01-28 22:24:40:2440,-0.310165,-0.295853,-0.214600,0.257599,0.906906,7.715012
2019-01-28 22:24:40:2440,-0.072311,-0.251633,-0.059753,0.257599,0.906906,7.715012
2019-01-28 22:24:40:2440,-0.072311,-0.251633,-0.059753,0.335358,0.788467,8.456787
2019-01-28 22:24:40:2440,-0.072311,-0.251633,-0.059753,-1.210403,0.758560,10.514618
2019-01-28 22:24:40:2440,-0.072311,-0.251633,-0.059753,0.170258,2.032730,11.711029
2019-01-28 22:24:40:2440,-0.072311,-0.251633,-0.059753,-0.588272,0.774109,10.690491
2019-01-28 22:24:40:2440,-0.072311,-0.251633,-0.059753,0.466980,0.733429,9.715408
2019-01-28 22:24:40:2440,-0.072311,-0.251633,-0.059753,0.762482,1.390259,9.441437
2019-01-28 22:24:40:2440,-0.072311,-0.251633,-0.059753,-0.029541,0.908096,9.363663
2019-01-28 22:24:40:2440,-0.072311,-0.251633,-0.059753,-0.514099,1.161743,8.361069
2019-01-28 22:24:40:2440,-0.072311,-0.251633,-0.059753,-1.017776,1.210800,8.126572
2019-01-28 22:24:40:2440,-0.016769,-0.005020,0.374069,-1.017776,1.210800,8.126572
2019-01-28 22:24:40:2440,-0.016769,-0.005020,0.374069,-1.057266,0.922455,9.162659
2019-01-28 22:24:40:2440,-0.016769,-0.005020,0.374069,-0.450684,1.141403,9.513214
2019-01-28 22:24:40:2440,-0.016769,-0.005020,0.374069,-0.411209,2.705109,9.955887
2019-01-28 22:24:40:2440,-0.016769,-0.005020,0.374069,-2.674820,0.881790,9.153091
2019-01-28 22:24:40:2440,-0.016769,-0.005020,0.374069,-0.602631,2.273209,10.203537
2019-01-28 22:24:40:2440,-0.016769,-0.005020,0.374069,-0.407608,1.785065,10.272934
2019-01-28 22:24:40:2440,-0.016769,-0.005020,0.374069,-0.487778,1.401031,10.495468
2019-01-28 22:24:40:2440,-0.016769,-0.005020,0.374069,-0.346603,0.738205,9.787186
2019-01-28 22:24:40:2440,-0.016769,-0.005020,0.374069,0.311447,0.123260,9.351700
2019-01-28 22:24:40:2440,-0.016769,-0.005020,0.374069,1.297287,-1.161697,9.918793
2019-01-28 22:24:41:2441,-0.587631,-0.185654,0.710236,1.297287,-1.161697,9.918793
2019-01-28 22:24:41:2441,-0.587631,-0.185654,0.710236,1.146530,-0.730988,10.793365
2019-01-28 22:24:41:2441,-0.587631,-0.185654,0.710236,0.364075,0.118469,10.208328
2019-01-28 22:24:41:2441,-0.587631,-0.185654,0.710236,0.200165,0.674805,8.067947
2019-01-28 22:24:41:2441,-0.587631,-0.185654,0.710236,-0.030746,1.027740,7.433853
2019-01-28 22:24:41:2441,-0.587631,-0.185654,0.710236,-0.094147,1.064835,7.962662
2019-01-28 22:24:41:2441,-0.587631,-0.185654,0.710236,0.084122,0.701126,9.139938
2019-01-28 22:24:41:2441,-0.587631,-0.185654,0.710236,0.008743,0.406799,9.921188
2019-01-28 22:24:41:2441,-0.587631,-0.185654,0.710236,0.876144,-0.372070,9.812317
2019-01-28 22:24:41:2441,-0.587631,-0.185654,0.710236,1.123810,-1.126999,9.929565
2019-01-28 22:24:41:2441,0.180099,0.514816,0.036636,1.123810,-1.126999,9.929565
2019-01-28 22:24:41:2441,0.180099,0.514816,0.036636,1.249420,-1.598389,11.803146
2019-01-28 22:24:41:2441,0.180099,0.514816,0.036636,0.324600,-0.720230,12.839233
2019-01-28 22:24:41:2441,0.180099,0.514816,0.036636,-0.718674,-0.184235,11.134338
2019-01-28 22:24:41:2441,0.180099,0.514816,0.036636,-1.106308,0.198639,9.900848
2019-01-28 22:24:41:2441,0.180099,0.514816,0.036636,-1.418579,0.855453,9.894867
2019-01-28 22:24:41:2441,0.180099,0.514816,0.036636,-2.238129,0.884171,9.802750
2019-01-28 22:24:41:2441,0.180099,0.514816,0.036636,-1.438919,0.592239,10.024078
2019-01-28 22:24:41:2441,0.180099,0.514816,0.036636,-0.871826,0.259644,10.002548
2019-01-28 22:24:41:2441,0.180099,0.514816,0.036636,-0.225754,0.009598,11.029068
2019-01-28 22:24:41:2441,0.180099,0.514816,0.036636,-0.473419,-0.069366,11.146317
2019-01-28 22:24:41:2441,0.776962,-0.066299,-0.234879,-0.473419,-0.069366,11.146317
2019-01-28 22:24:41:2441,0.776962,-0.066299,-0.234879,-0.737823,-0.129196,12.048401
2019-01-28 22:24:41:2441,0.776962,-0.066299,-0.234879,-0.456665,0.248871,10.342331
2019-01-28 22:24:41:2441,0.776962,-0.066299,-0.234879,-0.438721,0.659256,8.402939
2019-01-28 22:24:41:2441,0.776962,-0.066299,-0.234879,-0.594254,1.155762,7.333344
2019-01-28 22:24:41:2441,0.776962,-0.066299,-0.234879,-0.978302,1.657059,6.403732
2019-01-28 22:24:41:2441,0.776962,-0.066299,-0.234879,-0.616989,1.630737,5.901245
2019-01-28 22:24:41:2441,0.776962,-0.066299,-0.234879,-0.406418,1.252670,6.262558
2019-01-28 22:24:41:2441,0.776962,-0.066299,-0.234879,-0.082184,0.938019,6.964859
2019-01-28 22:24:41:2441,0.776962,-0.066299,-0.234879,0.444244,1.354355,7.141922
2019-01-28 22:24:41:2441,-0.135040,0.227402,-0.107269,0.444244,1.354355,7.141922
2019-01-28 22:24:41:2441,-0.135040,0.227402,-0.107269,-1.236725,0.235718,5.922775
2019-01-28 22:24:41:2441,-0.135040,0.227402,-0.107269,-0.267624,0.898529,5.736145
2019-01-28 22:24:41:2441,-0.135040,0.227402,-0.107269,0.035065,1.192841,7.409912
2019-01-28 22:24:41:2441,-0.135040,0.227402,-0.107269,-0.389664,1.841293,10.459579
2019-01-28 22:24:41:2441,-0.135040,0.227402,-0.107269,-1.260651,2.295944,13.285492
2019-01-28 22:24:41:2441,-0.135040,0.227402,-0.107269,-1.572922,2.930038,13.122787
2019-01-28 22:24:41:2441,-0.135040,0.227402,-0.107269,-1.056061,1.975296,12.114212
2019-01-28 22:24:41:2441,-0.135040,0.227402,-0.107269,-0.321472,1.524261,11.492081
2019-01-28 22:24:41:2441,-0.135040,0.227402,-0.107269,-0.055862,1.749176,10.475128
2019-01-28 22:24:41:2441,-0.135040,0.227402,-0.107269,-0.430344,1.978882,11.626068
2019-01-28 22:24:41:2441,-0.135040,0.227402,-0.107269,-0.969925,2.660843,13.146713
2019-01-28 22:24:41:2441,-0.135040,0.227402,-0.107269,-0.985474,2.599823,13.765259
2019-01-28 22:24:41:2441,-0.135040,0.227402,-0.107269,-0.609802,2.093750,14.623077
2019-01-28 22:24:41:2441,-0.135040,0.227402,-0.107269,0.025482,0.832733,14.085892
2019-01-28 22:24:41:2441,-0.135040,0.227402,-0.107269,0.660782,-0.428299,13.548706
2019-01-28 22:24:41:2441,-0.135040,0.227402,-0.107269,0.852219,-1.036072,14.254593
2019-01-28 22:24:41:2441,-0.135040,0.227402,-0.107269,1.931381,-1.607956,12.160873
2019-01-28 22:24:41:2441,-0.135040,0.227402,-0.107269,1.335556,-1.375854,8.643417
2019-01-28 22:24:41:2441,-0.135040,0.227402,-0.107269,0.203751,-0.705856,6.597549
2019-01-28 22:24:41:2441,-0.135040,0.227402,-0.107269,-0.114487,0.196228,4.678513
2019-01-28 22:24:41:2441,-0.135040,0.227402,-0.107269,-0.499725,0.923645,2.668533
2019-01-28 22:24:42:2442,-0.135040,0.227402,-0.107269,-0.609802,2.093750,14.623077
2019-01-28 22:24:42:2442,-0.135040,0.227402,-0.107269,-2.433136,2.623154,6.486282
2019-01-28 22:24:42:2442,-0.135040,0.227402,-0.107269,-2.542007,2.407196,6.498260
2019-01-28 22:24:42:2442,-0.135040,0.227402,-0.107269,-2.512100,1.322052,10.085098
2019-01-28 22:24:42:2442,-0.135040,0.227402,-0.107269,-2.215393,0.454666,12.507828
2019-01-28 22:24:42:2442,-0.135040,0.227402,-0.107269,0.165482,-1.347137,13.301056
2019-01-28 22:24:42:2442,-0.135040,0.227402,-0.107269,2.326187,-2.764893,11.963455
2019-01-28 22:24:42:2442,-0.135040,0.227402,-0.107269,1.930176,-2.208557,10.318390
2019-01-28 22:24:42:2442,-0.135040,0.227402,-0.107269,1.407349,-0.899673,9.788391
2019-01-28 22:24:42:2442,-0.206451,0.224075,-0.010788,1.407349,-0.899673,9.788391
2019-01-28 22:24:42:2442,-0.206451,0.224075,-0.010788,-0.171921,0.649673,8.972443
2019-01-28 22:24:42:2442,-0.206451,0.224075,-0.010788,-1.960556,1.389069,8.393372
2019-01-28 22:24:42:2442,-0.206451,0.224075,-0.010788,-1.569321,2.237320,7.536743
2019-01-28 22:24:42:2442,-0.206451,0.224075,-0.010788,-1.319275,2.155960,8.432846
2019-01-28 22:24:42:2442,-0.206451,0.224075,-0.010788,-2.063446,1.075607,10.018097
2019-01-28 22:24:42:2442,-0.206451,0.224075,-0.010788,-0.487762,0.677200,11.389191
2019-01-28 22:24:42:2442,-0.206451,0.224075,-0.010788,-1.420975,0.820755,9.409119
2019-01-28 22:24:42:2442,-0.206451,0.224075,-0.010788,-0.583481,2.196640,11.139130
2019-01-28 22:24:42:2442,-0.206451,0.224075,-0.010788,-0.695938,1.359146,10.792175
2019-01-28 22:24:42:2442,-0.206451,0.224075,-0.010788,-0.238907,1.311295,10.595963
2019-01-28 22:24:42:2442,-0.206451,0.224075,-0.010788,-0.069031,1.103119,10.323181
2019-01-28 22:24:42:2442,-0.206451,0.224075,-0.010788,-0.143204,0.748978,9.770432
2019-01-28 22:24:42:2442,-0.206451,0.224075,-0.010788,-0.250885,1.162933,8.889877
2019-01-28 22:24:42:2442,-0.086288,-0.300919,0.105179,-0.250885,1.162933,8.889877
2019-01-28 22:24:42:2442,-0.086288,-0.300919,0.105179,-0.662445,1.112686,8.964050
2019-01-28 22:24:42:2442,-0.086288,-0.300919,0.105179,-0.138412,0.368515,8.523773
2019-01-28 22:24:42:2442,-0.086288,-0.300919,0.105179,-0.894547,0.681976,8.425674
2019-01-28 22:24:42:2442,-0.086288,-0.300919,0.105179,-0.179092,0.354156,8.361069
2019-01-28 22:24:42:2442,-0.086288,-0.300919,0.105179,-0.655258,0.320663,8.875519
2019-01-28 22:24:42:2442,-0.086288,-0.300919,0.105179,-0.418381,0.622162,9.277512
2019-01-28 22:24:42:2442,-0.086288,-0.300919,0.105179,-0.645691,0.885361,9.066940
2019-01-28 22:24:42:2442,-0.086288,-0.300919,0.105179,-0.997437,0.811188,8.669739
2019-01-28 22:24:42:2442,-0.086288,-0.300919,0.105179,-0.447083,0.464233,8.444809
2019-01-28 22:24:42:2442,-0.036209,-0.051941,0.210983,-0.447083,0.464233,8.444809
2019-01-28 22:24:42:2442,-0.036209,-0.051941,0.210983,-0.492554,0.136414,8.334747
2019-01-28 22:24:42:2442,-0.036209,-0.051941,0.210983,-0.155167,0.270416,9.155487
2019-01-28 22:24:42:2442,-0.036209,-0.051941,0.210983,-0.155167,0.270416,9.155487
2019-01-28 22:24:42:2442,-0.036209,-0.051941,0.210983,-0.763550,1.713287,10.085098
2019-01-28 22:24:42:2442,-0.036209,-0.051941,0.210983,-1.027359,1.034927,8.984390
2019-01-28 22:24:42:2442,-0.036209,-0.051941,0.210983,0.647629,0.906906,8.856384
2019-01-28 22:24:42:2442,-0.036209,-0.051941,0.210983,-0.058258,1.337616,11.038635
2019-01-28 22:24:42:2442,-0.036209,-0.051941,0.210983,0.694290,-1.087524,12.698059
2019-01-28 22:24:42:2442,-0.036209,-0.051941,0.210983,0.701477,-0.417526,12.919388
2019-01-28 22:24:42:2442,-0.036209,-0.051941,0.210983,1.023300,-0.964294,12.130951
2019-01-28 22:24:42:2442,-0.036209,-0.051941,0.210983,0.002762,-0.587418,11.306625
2019-01-28 22:24:42:2442,-0.144241,-0.194077,0.125916,0.002762,-0.587418,11.306625
2019-01-28 22:24:42:2442,-0.144241,-0.194077,0.125916,-0.727051,0.159149,10.880707
2019-01-28 22:24:42:2442,-0.144241,-0.194077,0.125916,-1.289368,1.005005,10.038437
2019-01-28 22:24:43:2443,-0.144241,-0.194077,0.125916,-1.666245,1.118668,9.327759
2019-01-28 22:24:43:2443,-0.144241,-0.194077,0.125916,-1.193649,1.341202,9.533554
2019-01-28 22:24:43:2443,-0.144241,-0.194077,0.125916,-1.144608,1.334030,9.154282
2019-01-28 22:24:43:2443,-0.144241,-0.194077,0.125916,-0.299927,1.476395,8.454391
2019-01-28 22:24:43:2443,-0.144241,-0.194077,0.125916,-0.055862,0.873398,9.413910
2019-01-28 22:24:43:2443,-0.144241,-0.194077,0.125916,0.212143,0.290756,10.520584
2019-01-28 22:24:43:2443,-0.144241,-0.194077,0.125916,0.116425,-0.044250,10.926178
2019-01-28 22:24:43:2443,-0.144241,-0.194077,0.125916,-0.137222,0.494141,10.514618
2019-01-28 22:24:43:2443,0.073196,-0.088699,0.274628,-0.137222,0.494141,10.514618
2019-01-28 22:24:43:2443,0.073196,-0.088699,0.274628,-0.291565,1.082779,10.533752
2019-01-28 22:24:43:2443,0.073196,-0.088699,0.274628,-0.198242,1.434525,10.270538
2019-01-28 22:24:43:2443,0.073196,-0.088699,0.274628,-0.344208,1.659454,9.805130
2019-01-28 22:24:43:2443,0.073196,-0.088699,0.274628,-0.088165,1.641495,9.112411
2019-01-28 22:24:43:2443,0.073196,-0.088699,0.274628,-0.407608,1.320862,8.788177
2019-01-28 22:24:43:2443,0.073196,-0.088699,0.274628,-0.030746,1.570908,7.856186
2019-01-28 22:24:43:2443,0.073196,-0.088699,0.274628,-0.345398,1.381882,7.318985
2019-01-28 22:24:43:2443,0.073196,-0.088699,0.274628,-0.185089,1.057648,7.944717
2019-01-28 22:24:43:2443,0.073196,-0.088699,0.274628,0.598572,0.777695,9.357681
2019-01-28 22:24:43:2443,0.144302,0.145721,0.550308,0.598572,0.777695,9.357681
2019-01-28 22:24:43:2443,0.144302,0.145721,0.550308,0.816330,0.403214,10.433243
2019-01-28 22:24:43:2443,0.144302,0.145721,0.550308,0.519623,0.208206,11.402344
2019-01-28 22:24:43:2443,0.144302,0.145721,0.550308,0.184616,0.277588,11.600952
2019-01-28 22:24:43:2443,0.144302,0.145721,0.550308,0.368866,0.594650,10.764664
2019-01-28 22:24:43:2443,0.144302,0.145721,0.550308,0.806747,1.265823,10.119797
2019-01-28 22:24:43:2443,0.144302,0.145721,0.550308,0.388016,1.780289,9.738144
2019-01-28 22:24:43:2443,0.144302,0.145721,0.550308,-0.185074,1.916687,9.289490
2019-01-28 22:24:43:2443,0.144302,0.145721,0.550308,0.091293,1.289749,8.644608
2019-01-28 22:24:43:2443,0.144302,0.145721,0.550308,0.812744,0.525253,8.472336
2019-01-28 22:24:43:2443,0.144302,0.145721,0.550308,0.829483,-0.221313,8.638641
2019-01-28 22:24:43:2443,0.036911,0.110123,0.187210,0.829483,-0.221313,8.638641
2019-01-28 22:24:43:2443,0.036911,0.110123,0.187210,0.246826,-0.725006,8.771439
2019-01-28 22:24:43:2443,0.036911,0.110123,0.187210,0.486115,-1.055222,8.553696
2019-01-28 22:24:43:2443,0.036911,0.110123,0.187210,0.244446,-1.119827,8.132553
2019-01-28 22:24:43:2443,0.036911,0.110123,0.187210,-0.378891,-0.976257,8.216309
2019-01-28 22:24:43:2443,0.036911,0.110123,0.187210,-1.057266,-0.677155,8.502243
2019-01-28 22:24:43:2443,0.036911,0.110123,0.187210,-0.807220,-0.994202,11.190582
2019-01-28 22:24:43:2443,0.036911,0.110123,0.187210,0.094879,-2.213333,17.030258
2019-01-28 22:24:43:2443,0.036911,0.110123,0.187210,-0.052277,-0.768082,10.989594
2019-01-28 22:24:43:2443,0.036911,0.110123,0.187210,-0.924454,0.518066,7.959076
2019-01-28 22:24:43:2443,0.061844,0.278351,-0.261932,-0.924454,0.518066,7.959076
2019-01-28 22:24:43:2443,0.061844,0.278351,-0.261932,-0.667236,1.104309,9.111221
2019-01-28 22:24:43:2443,0.061844,0.278351,-0.261932,-0.399231,1.407013,9.154282
2019-01-28 22:24:43:2443,0.061844,0.278351,-0.261932,-0.478195,1.262238,8.630264
2019-01-28 22:24:43:2443,0.061844,0.278351,-0.261932,-1.008209,0.585068,8.432846
2019-01-28 22:24:43:2443,0.061844,0.278351,-0.261932,-0.709106,0.084976,8.434052
2019-01-28 22:24:43:2443,0.061844,0.278351,-0.261932,-0.341812,0.045486,7.514008
2019-01-28 22:24:43:2443,0.061844,0.278351,-0.261932,-0.128845,-0.061005,6.973236
2019-01-28 22:24:43:2443,0.061844,0.278351,-0.261932,-0.086975,-0.051422,7.286682
2019-01-28 22:24:43:2443,0.061844,0.278351,-0.261932,-0.121674,0.382889,8.363464
2019-01-28 22:24:43:2443,0.061844,0.278351,-0.261932,0.121216,1.086365,9.513214
2019-01-28 22:24:43:2443,0.110397,0.102234,-0.143860,0.121216,1.086365,9.513214
2019-01-28 22:24:43:2443,0.110397,0.102234,-0.143860,-0.075012,1.438110,10.957275
2019-01-28 22:24:43:2443,0.110397,0.102234,-0.143860,-0.029541,1.773102,12.689682
2019-01-28 22:24:43:2443,0.110397,0.102234,-0.143860,-0.109695,1.574509,13.831055
2019-01-28 22:24:43:2443,0.110397,0.102234,-0.143860,-0.298737,1.432129,13.638443
2019-01-28 22:24:43:2443,0.110397,0.102234,-0.143860,-0.618179,0.990662,12.733948
2019-01-28 22:24:43:2443,0.110397,0.102234,-0.143860,-0.497345,0.585068,12.151306
2019-01-28 22:24:43:2443,0.110397,0.102234,-0.143860,-0.603821,-0.214142,10.999146
2019-01-28 22:24:43:2443,0.110397,0.102234,-0.143860,-1.005814,-0.632889,9.827866
2019-01-28 22:24:43:2443,0.110397,0.102234,-0.143860,-1.237915,-0.321823,9.063354
2019-01-28 22:24:44:2444,-0.886276,-0.407333,0.172867,-1.237915,-0.321823,9.063354
2019-01-28 22:24:44:2444,-0.886276,-0.407333,0.172867,-0.649292,0.112488,8.462769
2019-01-28 22:24:44:2444,-0.886276,-0.407333,0.172867,-0.387268,0.002411,7.935150
2019-01-28 22:24:44:2444,-0.886276,-0.407333,0.172867,-0.048691,-0.217728,9.369644
2019-01-28 22:24:44:2444,-0.886276,-0.407333,0.172867,0.733780,-0.563492,11.612915
2019-01-28 22:24:44:2444,-0.886276,-0.407333,0.172867,1.489899,-1.138962,11.736145
2019-01-28 22:24:44:2444,-0.886276,-0.407333,0.172867,1.504257,-1.654617,10.489487
2019-01-28 22:24:44:2444,-0.886276,-0.407333,0.172867,0.736160,-1.618729,10.287292
2019-01-28 22:24:44:2444,-0.886276,-0.407333,0.172867,0.452621,-1.189209,9.781204
2019-01-28 22:24:44:2444,-0.886276,-0.407333,0.172867,0.318619,-1.031281,8.413712
2019-01-28 22:24:44:2444,0.302139,0.063705,-0.171280,0.318619,-1.031281,8.413712
2019-01-28 22:24:44:2444,0.302139,0.063705,-0.171280,0.402359,-1.018127,7.878906
2019-01-28 22:24:44:2444,0.302139,0.063705,-0.171280,0.291107,-1.198792,8.704437
2019-01-28 22:24:44:2444,0.302139,0.063705,-0.171280,0.176239,-0.888916,9.485687
2019-01-28 22:24:44:2444,0.302139,0.063705,-0.171280,0.281525,-0.254822,8.956879
2019-01-28 22:24:44:2444,0.302139,0.063705,-0.171280,0.141541,0.224945,8.497452
2019-01-28 22:24:44:2444,0.302139,0.063705,-0.171280,-0.048691,0.488159,9.344513
2019-01-28 22:24:44:2444,0.302139,0.063705,-0.171280,0.456207,0.046692,9.906830
2019-01-28 22:24:44:2444,0.302139,0.063705,-0.171280,0.419113,-0.125610,10.402145
2019-01-28 22:24:44:2444,0.302139,0.063705,-0.171280,0.395187,0.290756,10.270538
2019-01-28 22:24:44:2444,0.302139,0.063705,-0.171280,0.898880,0.490555,9.631653
2019-01-28 22:24:44:2444,0.136917,-0.091507,-0.135117,0.898880,0.490555,9.631653
2019-01-28 22:24:44:2444,0.136917,-0.091507,-0.135117,0.816315,0.458252,9.172241
2019-01-28 22:24:44:2444,0.136917,-0.091507,-0.135117,0.159500,0.184280,10.176025
2019-01-28 22:24:44:2444,0.136917,-0.091507,-0.135117,0.154709,-0.232086,11.365250
2019-01-28 22:24:44:2444,0.136917,-0.091507,-0.135117,0.658401,-0.741760,11.761261
2019-01-28 22:24:44:2444,0.136917,-0.091507,-0.135117,0.916824,-1.190414,12.006531
2019-01-28 22:24:44:2444,0.136917,-0.091507,-0.135117,0.508850,-0.716629,11.433456
2019-01-28 22:24:44:2444,0.136917,-0.091507,-0.135117,-0.088181,0.495346,9.776428
2019-01-28 22:24:44:2444,0.136917,-0.091507,-0.135117,-0.366928,1.274200,7.963852
2019-01-28 22:24:44:2444,0.136917,-0.091507,-0.135117,-0.285583,1.200027,7.179016
2019-01-28 22:24:44:2444,0.103439,-0.090836,-0.091995,-0.285583,1.200027,7.179016
2019-01-28 22:24:44:2444,0.103439,-0.090836,-0.091995,-0.351379,0.754959,7.827469
2019-01-28 22:24:44:2444,0.103439,-0.090836,-0.091995,-0.022369,0.251266,8.898254
2019-01-28 22:24:44:2444,0.103439,-0.090836,-0.091995,0.556702,-0.071762,9.372040
2019-01-28 22:24:44:2444,0.103439,-0.090836,-0.091995,0.831879,-0.405563,9.986984
2019-01-28 22:24:44:2444,0.103439,-0.090836,-0.091995,1.113037,-0.979843,10.436844
2019-01-28 22:24:44:2444,0.103439,-0.090836,-0.091995,0.772049,-1.064789,9.934357
2019-01-28 22:24:44:2444,0.103439,-0.090836,-0.091995,0.482529,-0.425903,9.311020
2019-01-28 22:24:44:2444,0.103439,-0.090836,-0.091995,0.526794,0.145996,9.314606
2019-01-28 22:24:44:2444,0.103439,-0.090836,-0.091995,0.321014,0.040710,9.657974
2019-01-28 22:24:44:2444,0.103439,-0.090836,-0.091995,0.459793,-0.525208,9.753693
2019-01-28 22:24:44:2444,0.103439,-0.090836,-0.091995,0.453812,-0.387619,9.673538
2019-01-28 22:24:44:2444,0.103439,-0.090836,-0.091995,0.301865,0.021561,9.655579
2019-01-28 22:24:44:2444,0.103439,-0.090836,-0.091995,0.334167,0.181870,9.571838
2019-01-28 22:24:44:2444,0.103439,-0.090836,-0.091995,0.366470,0.342194,9.488083
2019-01-28 22:24:44:2444,0.103439,-0.090836,-0.091995,0.462189,0.727448,9.662766
2019-01-28 22:24:44:2444,0.103439,-0.090836,-0.091995,0.541153,0.375702,9.820679
2019-01-28 22:24:44:2444,0.103439,-0.090836,-0.091995,0.237259,0.346985,10.284897
2019-01-28 22:24:44:2444,0.103439,-0.090836,-0.091995,0.347321,0.332626,10.055176
2019-01-28 22:24:44:2444,0.103439,-0.090836,-0.091995,0.524399,0.203415,10.033646
2019-01-28 22:24:44:2444,0.103439,-0.090836,-0.091995,0.488510,0.370911,9.540726
2019-01-28 22:24:44:2444,0.005829,-0.026764,-0.043991,0.488510,0.370911,9.540726
2019-01-28 22:24:44:2444,0.005829,-0.026764,-0.043991,0.435867,0.232132,9.334946
2019-01-28 22:24:44:2444,0.005829,-0.026764,-0.043991,0.572250,0.421158,10.016891
2019-01-28 22:24:44:2444,0.005829,-0.026764,-0.043991,0.538757,0.524048,9.992966
2019-01-28 22:24:44:2444,0.005829,-0.026764,-0.043991,0.349716,0.586258,10.148499
2019-01-28 22:24:44:2444,0.005829,-0.026764,-0.043991,0.533966,0.469009,10.414108
2019-01-28 22:24:45:2445,0.005829,-0.026764,-0.043991,0.399979,-0.171066,10.314804
2019-01-28 22:24:45:2445,0.005829,-0.026764,-0.043991,0.367676,0.166336,10.199951
2019-01-28 22:24:45:2445,0.005829,-0.026764,-0.043991,0.439453,0.477386,9.927170
2019-01-28 22:24:45:2445,0.005829,-0.026764,-0.043991,0.577042,0.405609,9.814713
2019-01-28 22:24:45:2445,0.005829,-0.026764,-0.043991,0.460983,0.325439,10.342331
2019-01-28 22:24:45:2445,0.005829,-0.026764,-0.043991,0.555496,0.099319,10.260971
2019-01-28 22:24:45:2445,0.005829,-0.026764,-0.043991,0.403564,-0.041855,10.031250
2019-01-28 22:24:45:2445,0.022141,-0.012161,0.149704,0.403564,-0.041855,10.031250
2019-01-28 22:24:45:2445,0.022141,-0.012161,0.149704,0.683517,0.038315,9.748901
2019-01-28 22:24:45:2445,0.022141,-0.012161,0.149704,0.439453,0.205811,9.016693
2019-01-28 22:24:45:2445,0.022141,-0.012161,0.149704,0.396378,0.330246,8.603943
2019-01-28 22:24:45:2445,0.022141,-0.012161,0.149704,0.559097,0.354156,8.169647
2019-01-28 22:24:45:2445,0.022141,-0.012161,0.149704,0.362885,0.521652,7.916000
2019-01-28 22:24:45:2445,0.022141,-0.012161,0.149704,0.124802,0.882980,7.461365
2019-01-28 22:24:45:2445,0.022141,-0.012161,0.149704,-0.079803,0.861435,7.129959
2019-01-28 22:24:45:2445,0.022141,-0.012161,0.149704,0.098480,-0.008362,8.618301
2019-01-28 22:24:45:2445,0.022141,-0.012161,0.149704,1.229080,-1.024109,11.623688
2019-01-28 22:24:45:2445,0.022141,-0.012161,0.149704,2.097687,-1.421326,12.590378
2019-01-28 22:24:45:2445,-0.147018,0.080795,0.269196,2.097687,-1.421326,12.590378
2019-01-28 22:24:45:2445,-0.147018,0.080795,0.269196,1.522217,-0.967880,11.259964
2019-01-28 22:24:45:2445,-0.147018,0.080795,0.269196,0.254013,-0.282333,10.000153
2019-01-28 22:24:45:2445,-0.147018,0.080795,0.269196,-0.185074,0.131638,9.458176
2019-01-28 22:24:45:2445,-0.147018,0.080795,0.269196,-0.301132,0.111298,8.926971
2019-01-28 22:24:45:2445,-0.147018,0.080795,0.269196,-0.352570,-0.125595,8.898254
2019-01-28 22:24:45:2445,-0.147018,0.080795,0.269196,-0.216187,-0.349335,9.772827
2019-01-28 22:24:45:2445,-0.147018,0.080795,0.269196,-0.090561,-0.558701,10.501450
2019-01-28 22:24:45:2445,-0.147018,0.080795,0.269196,0.255203,-0.659210,10.932159
2019-01-28 22:24:45:2445,-0.147018,0.080795,0.269196,0.182220,-0.246445,10.487091
2019-01-28 22:24:45:2445,0.031113,0.223862,-0.321121,0.182220,-0.246445,10.487091
2019-01-28 22:24:45:2445,0.031113,0.223862,-0.321121,-0.285583,0.218979,10.123383
2019-01-28 22:24:45:2445,0.031113,0.223862,-0.321121,-0.360947,0.118469,10.118591
2019-01-28 22:24:45:2445,0.031113,0.223862,-0.321121,-0.302338,0.041901,9.915207
2019-01-28 22:24:45:2445,0.031113,0.223862,-0.321121,-0.491364,0.296738,9.793167
2019-01-28 22:24:45:2445,0.031113,0.223862,-0.321121,-0.114487,0.443893,9.592178
2019-01-28 22:24:45:2445,0.031113,0.223862,-0.321121,0.450226,-0.047836,9.289490
2019-01-28 22:24:45:2445,0.031113,0.223862,-0.321121,0.892899,-0.279938,9.155487
2019-01-28 22:24:45:2445,0.031113,0.223862,-0.321121,0.717026,0.073013,9.397156
2019-01-28 22:24:45:2445,0.031113,0.223862,-0.321121,0.659592,0.612579,9.178223
2019-01-28 22:24:45:2445,0.031113,0.223862,-0.321121,0.773254,0.942795,8.621887
2019-01-28 22:24:45:2445,0.114182,-0.072937,-0.049728,0.773254,0.942795,8.621887
2019-01-28 22:24:45:2445,0.114182,-0.072937,-0.049728,0.907242,0.348175,9.299057
2019-01-28 22:24:45:2445,0.114182,-0.072937,-0.049728,0.746933,-0.437866,10.871140
2019-01-28 22:24:45:2445,0.114182,-0.072937,-0.049728,0.197784,-0.313446,12.133362
2019-01-28 22:24:45:2445,0.114182,-0.072937,-0.049728,-0.055862,0.228546,10.896271
2019-01-28 22:24:45:2445,0.114182,-0.072937,-0.049728,-0.252075,0.769318,8.940125
2019-01-28 22:24:45:2445,0.114182,-0.072937,-0.049728,-0.462646,0.727448,8.656586
2019-01-28 22:24:45:2445,0.114182,-0.072937,-0.049728,-0.630142,0.411591,9.468948
2019-01-28 22:24:45:2445,0.114182,-0.072937,-0.049728,-0.049881,0.150772,10.288483
2019-01-28 22:24:45:2445,0.114182,-0.072937,-0.049728,0.517227,-0.339767,11.056580
2019-01-28 22:24:46:2446,-0.052887,-0.117599,-0.137863,0.517227,-0.339767,11.056580
2019-01-28 22:24:46:2446,-0.052887,-0.117599,-0.137863,1.177643,-0.981033,12.201553
2019-01-28 22:24:46:2446,-0.052887,-0.117599,-0.137863,1.420502,-1.050430,12.401352
2019-01-28 22:24:46:2446,-0.052887,-0.117599,-0.137863,1.258987,-0.433090,11.221695
2019-01-28 22:24:46:2446,-0.052887,-0.117599,-0.137863,0.809143,0.257248,9.858978
2019-01-28 22:24:46:2446,-0.052887,-0.117599,-0.137863,0.486115,0.667618,8.700851
2019-01-28 22:24:46:2446,-0.052887,-0.117599,-0.137863,0.216919,0.765732,8.338333
2019-01-28 22:24:46:2446,-0.052887,-0.117599,-0.137863,0.621307,0.427139,8.526169
2019-01-28 22:24:46:2446,-0.052887,-0.117599,-0.137863,1.284119,-0.190201,8.661362
2019-01-28 22:24:46:2446,-0.052887,-0.117599,-0.137863,1.132172,-0.200974,9.403137
2019-01-28 22:24:46:2446,-0.052887,-0.117599,-0.137863,0.493286,0.400833,9.758484
2019-01-28 22:24:46:2446,0.108383,-0.108749,-0.054123,0.493286,0.400833,9.758484
2019-01-28 22:24:46:2446,0.108383,-0.108749,-0.054123,0.600967,0.441498,9.139938
2019-01-28 22:24:46:2446,0.108383,-0.108749,-0.054123,1.087906,0.015579,8.515411
2019-01-28 22:24:46:2446,0.108383,-0.108749,-0.054123,0.848633,-0.112442,9.005936
2019-01-28 22:24:46:2446,0.108383,-0.108749,-0.054123,0.628479,0.209396,9.187790
2019-01-28 22:24:46:2446,0.108383,-0.108749,-0.054123,0.390396,0.771713,8.510620
2019-01-28 22:24:46:2446,0.108383,-0.108749,-0.054123,0.303070,0.975098,7.583405
2019-01-28 22:24:46:2446,0.108383,-0.108749,-0.054123,0.297073,0.704712,7.503235
2019-01-28 22:24:46:2446,0.108383,-0.108749,-0.054123,0.535172,0.355362,8.836044
2019-01-28 22:24:46:2446,0.108383,-0.108749,-0.054123,0.786423,-0.105270,10.295670
2019-01-28 22:24:46:2446,-0.099670,0.092636,-0.093765,0.786423,-0.105270,10.295670
2019-01-28 22:24:46:2446,-0.099670,0.092636,-0.093765,0.823502,-0.418732,11.224075
2019-01-28 22:24:46:2446,-0.099670,0.092636,-0.093765,0.677536,-0.634079,11.986191
2019-01-28 22:24:46:2446,-0.099670,0.092636,-0.093765,0.906052,-0.552719,12.209915
2019-01-28 22:24:46:2446,-0.099670,0.092636,-0.093765,0.787613,0.049088,11.216904
2019-01-28 22:24:46:2446,-0.099670,0.092636,-0.093765,0.462189,0.908096,9.855377
2019-01-28 22:24:46:2446,-0.099670,0.092636,-0.093765,0.036270,1.537415,8.535736
2019-01-28 22:24:46:2446,-0.099670,0.092636,-0.093765,0.242050,1.401016,8.008118
2019-01-28 22:24:46:2446,-0.099670,0.092636,-0.093765,0.853409,0.665237,8.621887
2019-01-28 22:24:46:2446,-0.099670,0.092636,-0.093765,1.625107,-0.538361,10.164063
2019-01-28 22:24:46:2446,-0.094727,0.063446,-0.050217,1.625107,-0.538361,10.164063
2019-01-28 22:24:46:2446,-0.094727,0.063446,-0.050217,1.998383,-1.398590,11.768448
2019-01-28 22:24:46:2446,-0.094727,0.063446,-0.050217,1.882324,-1.361496,12.486298
2019-01-28 22:24:46:2446,-0.094727,0.063446,-0.050217,1.029282,-0.433090,11.823486
2019-01-28 22:24:46:2446,-0.094727,0.063446,-0.050217,0.106857,0.455856,10.697662
2019-01-28 22:24:46:2446,-0.094727,0.063446,-0.050217,-0.203018,0.696335,9.385193
2019-01-28 22:24:46:2446,-0.094727,0.063446,-0.050217,-0.296341,0.203415,8.777420
2019-01-28 22:24:46:2446,-0.094727,0.063446,-0.050217,-0.103729,-0.301468,8.960464
2019-01-28 22:24:46:2446,-0.094727,0.063446,-0.050217,-0.066635,-0.532379,8.862366
2019-01-28 22:24:46:2446,-0.094727,0.063446,-0.050217,-0.083389,-0.387619,7.923187
2019-01-28 22:24:46:2446,-0.094727,0.063446,-0.050217,-0.207809,0.052658,6.955276
2019-01-28 22:24:46:2446,-0.023071,0.179947,-0.022476,-0.207809,0.052658,6.955276
2019-01-28 22:24:46:2446,-0.023071,0.179947,-0.022476,-0.234131,0.575500,6.273331
2019-01-28 22:24:46:2446,-0.023071,0.179947,-0.022476,-0.127655,0.859055,5.996964
2019-01-28 22:24:46:2446,-0.023071,0.179947,-0.022476,0.066177,0.635315,7.033051
2019-01-28 22:24:46:2446,-0.023071,0.179947,-0.022476,0.460983,0.214188,8.891083
2019-01-28 22:24:46:2446,-0.023071,0.179947,-0.022476,0.677536,-0.191406,10.908234
2019-01-28 22:24:46:2446,-0.023071,0.179947,-0.022476,0.860596,-0.393600,12.592773
2019-01-28 22:24:46:2446,-0.023071,0.179947,-0.022476,0.669159,-0.257202,13.272339
2019-01-28 22:24:46:2446,-0.023071,0.179947,-0.022476,0.337753,0.125641,12.705231
2019-01-28 22:24:46:2446,-0.023071,0.179947,-0.022476,-0.102524,0.642502,11.416702
2019-01-28 22:24:46:2446,0.005081,0.146942,-0.225708,-0.102524,0.642502,11.416702
2019-01-28 22:24:46:2446,0.005081,0.146942,-0.225708,-0.156357,0.766922,9.809921
2019-01-28 22:24:46:2446,0.005081,0.146942,-0.225708,-0.242508,0.324249,9.014313
2019-01-28 22:24:46:2446,0.005081,0.146942,-0.225708,-0.232941,-0.117233,9.187790
2019-01-28 22:24:47:2447,0.005081,0.146942,-0.225708,-0.191055,-0.263184,9.436646
2019-01-28 22:24:47:2447,0.005081,0.146942,-0.225708,-0.155167,-0.145950,9.785995
2019-01-28 22:24:47:2447,0.005081,0.146942,-0.225708,-0.155167,-0.263184,10.397354
2019-01-28 22:24:47:2447,0.005081,0.146942,-0.225708,0.074554,-0.668777,10.811310
2019-01-28 22:24:47:2447,0.005081,0.146942,-0.225708,-0.040314,-0.638870,10.694061
2019-01-28 22:24:47:2447,0.005081,0.146942,-0.225708,-0.140808,-0.165085,10.008530
2019-01-28 22:24:47:2447,0.005081,0.146942,-0.225708,-0.180298,0.128036,8.861176
2019-01-28 22:24:47:2447,0.157669,-0.059692,-0.458817,-0.180298,0.128036,8.861176
2019-01-28 22:24:47:2447,0.157669,-0.059692,-0.458817,-0.145599,0.074203,8.055984
2019-01-28 22:24:47:2447,0.157669,-0.059692,-0.458817,-0.030746,-0.257217,8.937744
2019-01-28 22:24:47:2447,0.157669,-0.059692,-0.458817,0.201370,-0.496490,9.922379
2019-01-28 22:24:47:2447,0.157669,-0.059692,-0.458817,0.230087,-0.270370,9.902054
2019-01-28 22:24:47:2447,0.157669,-0.059692,-0.458817,0.102066,-0.132782,8.932953
2019-01-28 22:24:47:2447,0.157669,-0.059692,-0.458817,-0.274811,-0.261993,9.203339
2019-01-28 22:24:47:2447,0.157669,-0.059692,-0.458817,-0.576309,-0.163895,10.152100
2019-01-28 22:24:47:2447,0.157669,-0.059692,-0.458817,-0.357361,0.192657,10.686890
2019-01-28 22:24:47:2447,0.157669,-0.059692,-0.458817,0.228882,0.135223,10.640228
2019-01-28 22:24:47:2447,0.157669,-0.059692,-0.458817,0.880936,-0.066971,10.350693
2019-01-28 22:24:47:2447,0.157669,-0.059692,-0.458817,0.023102,0.335022,9.973831
2019-01-28 22:24:47:2447,0.157669,-0.059692,-0.458817,-0.576309,0.732224,10.470337
2019-01-28 22:24:47:2447,0.157669,-0.059692,-0.458817,-0.631332,0.703506,10.715607
2019-01-28 22:24:47:2447,0.157669,-0.059692,-0.458817,-0.389664,0.299133,10.683304
2019-01-28 22:24:47:2447,0.157669,-0.059692,-0.458817,-0.147980,-0.105255,10.651001
2019-01-28 22:24:47:2447,0.157669,-0.059692,-0.458817,0.555496,-0.203369,12.158478
2019-01-28 22:24:47:2447,0.157669,-0.059692,-0.458817,-0.631332,0.703506,10.715607
2019-01-28 22:24:47:2447,0.157669,-0.059692,-0.458817,-0.712097,0.954758,9.312225
2019-01-28 22:24:47:2447,0.157669,-0.059692,-0.458817,-0.729446,1.008606,8.459167
2019-01-28 22:24:47:2447,0.157669,-0.059692,-0.458817,-0.539215,0.702316,7.785599
2019-01-28 22:24:47:2447,0.157669,-0.059692,-0.458817,0.213333,0.570724,8.565659
2019-01-28 22:24:47:2447,0.157669,-0.059692,-0.458817,0.337753,0.942795,9.464157
2019-01-28 22:24:47:2447,0.157669,-0.059692,-0.458817,0.225296,1.426147,9.808731
2019-01-28 22:24:47:2447,0.157669,-0.059692,-0.458817,0.739746,1.715683,9.914017
2019-01-28 22:24:47:2447,0.157669,-0.059692,-0.458817,0.484909,2.050674,7.280716
2019-01-28 22:24:47:2447,0.340073,-0.113052,0.160065,0.484909,2.050674,7.280716
2019-01-28 22:24:47:2447,0.340073,-0.113052,0.160065,-0.142014,2.237320,7.622879
2019-01-28 22:24:47:2447,0.340073,-0.113052,0.160065,-0.268829,2.151169,7.796356
2019-01-28 22:24:47:2447,0.340073,-0.113052,0.160065,0.005157,1.618774,7.639633
2019-01-28 22:24:47:2447,0.340073,-0.113052,0.160065,0.280334,1.034912,8.340729
2019-01-28 22:24:47:2447,0.340073,-0.113052,0.160065,0.437057,0.935623,9.154282
2019-01-28 22:24:47:2447,0.340073,-0.113052,0.160065,0.693100,0.882980,9.555084
2019-01-28 22:24:47:2447,0.340073,-0.113052,0.160065,0.897690,0.606613,9.448608
2019-01-28 22:24:47:2447,0.340073,-0.113052,0.160065,0.313843,0.540802,9.867355
2019-01-28 22:24:47:2447,0.340073,-0.113052,0.160065,0.242050,0.623352,9.937943
2019-01-28 22:24:47:2447,-0.857010,-0.213074,0.214218,0.242050,0.623352,9.937943
2019-01-28 22:24:47:2447,-0.857010,-0.213074,0.214218,0.644043,0.513290,10.081512
2019-01-28 22:24:47:2447,-0.857010,-0.213074,0.214218,1.001770,0.750183,10.109024
2019-01-28 22:24:47:2447,-0.857010,-0.213074,0.214218,0.968277,0.959549,10.453583
2019-01-28 22:24:47:2447,-0.857010,-0.213074,0.214218,0.627289,0.734619,10.666550
2019-01-28 22:24:47:2447,-0.857010,-0.213074,0.214218,0.271957,0.269226,10.805344
2019-01-28 22:24:47:2447,-0.857010,-0.213074,0.214218,0.636871,-0.062195,10.944122
2019-01-28 22:24:47:2447,-0.857010,-0.213074,0.214218,1.273361,-0.483337,10.745514
2019-01-28 22:24:47:2447,-0.857010,-0.213074,0.214218,1.347534,-0.771667,10.726364
2019-01-28 22:24:47:2447,-0.857010,-0.213074,0.214218,1.130981,-0.250031,11.130753
2019-01-28 22:24:47:2447,-0.857010,-0.213074,0.214218,0.740952,0.507309,10.984802
2019-01-28 22:24:48:2448,-0.128693,-0.159195,0.381348,0.740952,0.507309,10.984802
2019-01-28 22:24:48:2448,-0.128693,-0.159195,0.381348,0.379639,1.172516,9.833847
2019-01-28 22:24:48:2448,-0.128693,-0.159195,0.381348,0.097290,1.380676,8.853989
2019-01-28 22:24:48:2448,-0.128693,-0.159195,0.381348,0.172653,1.185669,8.709229
2019-01-28 22:24:48:2448,-0.128693,-0.159195,0.381348,0.551910,1.100723,9.212906
2019-01-28 22:24:48:2448,-0.128693,-0.159195,0.381348,0.734970,1.223953,9.783600
2019-01-28 22:24:48:2448,-0.128693,-0.159195,0.381348,1.019714,1.464432,10.844818
2019-01-28 22:24:48:2448,-0.128693,-0.159195,0.381348,1.461197,1.374710,11.888092
2019-01-28 22:24:48:2448,-0.128693,-0.159195,0.381348,1.955307,1.012192,12.651398
2019-01-28 22:24:48:2448,-0.128693,-0.159195,0.381348,2.271164,0.594650,12.524582
2019-01-28 22:24:48:2448,0.073563,-0.058044,0.368881,2.271164,0.594650,12.524582
2019-01-28 22:24:48:2448,0.073563,-0.058044,0.368881,2.286713,0.211792,10.813705
2019-01-28 22:24:48:2448,0.073563,-0.058044,0.368881,1.939758,0.776489,8.664948
2019-01-28 22:24:48:2448,0.073563,-0.058044,0.368881,1.188416,1.773102,7.183792
2019-01-28 22:24:48:2448,0.073563,-0.058044,0.368881,0.425095,2.136826,5.906021
2019-01-28 22:24:48:2448,0.073563,-0.058044,0.368881,0.088898,1.273010,4.366257
2019-01-28 22:24:48:2448,0.073563,-0.058044,0.368881,0.641647,0.016769,5.518387
2019-01-28 22:24:48:2448,0.073563,-0.058044,0.368881,1.882324,-1.135376,8.716400
2019-01-28 22:24:48:2448,0.073563,-0.058044,0.368881,2.954315,-1.820923,11.056580
2019-01-28 22:24:48:2448,0.073563,-0.058044,0.368881,2.503265,-1.077942,12.835648
2019-01-28 22:24:48:2448,0.073563,-0.058044,0.368881,1.072357,0.279984,12.631058
2019-01-28 22:24:48:2448,-0.210663,0.111954,-0.024872,1.072357,0.279984,12.631058
2019-01-28 22:24:48:2448,-0.210663,0.111954,-0.024872,0.250427,1.003815,11.713409
2019-01-28 22:24:48:2448,-0.210663,0.111954,-0.024872,0.242050,1.075592,11.343719
2019-01-28 22:24:48:2448,-0.210663,0.111954,-0.024872,0.254013,1.124649,10.747910
2019-01-28 22:24:48:2448,-0.210663,0.111954,-0.024872,0.372452,1.168915,9.362457
2019-01-28 22:24:48:2448,-0.210663,0.111954,-0.024872,0.092499,1.125854,7.356079
2019-01-28 22:24:48:2448,-0.210663,0.111954,-0.024872,-0.216187,1.172501,5.700256
2019-01-28 22:24:48:2448,-0.210663,0.111954,-0.024872,-0.191071,1.476395,4.842422
2019-01-28 22:24:48:2448,-0.210663,0.111954,-0.024872,0.191803,1.611588,5.055374
2019-01-28 22:24:48:2448,-0.210663,0.111954,-0.024872,0.904861,1.317276,6.564056
2019-01-28 22:24:48:2448,0.177475,0.327393,-0.058212,0.904861,1.317276,6.564056
2019-01-28 22:24:48:2448,0.177475,0.327393,-0.058212,1.446838,0.796829,8.776215
2019-01-28 22:24:48:2448,0.177475,0.327393,-0.058212,1.578430,0.564728,10.891479
2019-01-28 22:24:48:2448,0.177475,0.327393,-0.058212,1.205154,0.772903,11.587784
2019-01-28 22:24:48:2448,0.177475,0.327393,-0.058212,0.745743,1.055252,11.382004
2019-01-28 22:24:48:2448,0.177475,0.327393,-0.058212,0.794785,0.997833,11.405930
2019-01-28 22:24:48:2448,0.177475,0.327393,-0.058212,1.180038,0.649673,12.040024
2019-01-28 22:24:48:2448,0.177475,0.327393,-0.058212,1.314026,0.656860,12.793762
2019-01-28 22:24:48:2448,0.177475,0.327393,-0.058212,0.736160,1.073212,12.827271
2019-01-28 22:24:48:2448,0.177475,0.327393,-0.058212,0.414337,1.250275,11.766052
2019-01-28 22:24:48:2448,0.016998,0.105286,-0.259003,0.414337,1.250275,11.766052
2019-01-28 22:24:48:2448,0.016998,0.105286,-0.259003,0.730179,0.853073,10.889084
2019-01-28 22:24:48:2448,0.016998,0.105286,-0.259003,1.255417,0.506119,10.111420
2019-01-28 22:24:48:2448,0.016998,0.105286,-0.259003,0.851013,0.757355,9.617294
2019-01-28 22:24:48:2448,0.016998,0.105286,-0.259003,0.164276,1.024155,8.959274
2019-01-28 22:24:48:2448,0.016998,0.105286,-0.259003,-0.124054,0.990662,8.719986
2019-01-28 22:24:48:2448,0.016998,0.105286,-0.259003,-0.076202,0.821960,9.239227
2019-01-28 22:24:48:2448,0.016998,0.105286,-0.259003,0.214523,0.789658,9.863770
2019-01-28 22:24:48:2448,0.016998,0.105286,-0.259003,0.350922,0.960739,10.268143
2019-01-28 22:24:48:2448,0.016998,0.105286,-0.259003,0.383224,1.165329,10.179611
2019-01-28 22:24:48:2448,0.016998,0.105286,-0.259003,0.216919,1.110306,9.703445
2019-01-28 22:24:48:2448,0.061218,0.039261,-0.205612,0.216919,1.110306,9.703445
2019-01-28 22:24:48:2448,0.061218,0.039261,-0.205612,0.414322,0.966736,9.321777
2019-01-28 22:24:48:2448,0.061218,0.039261,-0.205612,0.614136,0.788467,9.275131
2019-01-28 22:24:48:2448,0.061218,0.039261,-0.205612,0.839066,0.591049,9.177017
2019-01-28 22:24:48:2448,0.061218,0.039261,-0.205612,1.006546,0.594635,8.454391
2019-01-28 22:24:48:2448,0.061218,0.039261,-0.205612,0.864182,0.701126,7.833450
2019-01-28 22:24:48:2448,0.061218,0.039261,-0.205612,0.758896,0.744186,7.872940
2019-01-28 22:24:49:2449,0.061218,0.039261,-0.205612,0.752914,0.581482,8.284500
2019-01-28 22:24:49:2449,0.061218,0.039261,-0.205612,0.801971,0.375702,8.942520
2019-01-28 22:24:49:2449,0.061218,0.039261,-0.205612,0.614136,0.313492,10.189178
2019-01-28 22:24:49:2449,-0.090820,-0.127914,-0.161819,0.614136,0.313492,10.189178
2019-01-28 22:24:49:2449,-0.090820,-0.127914,-0.161819,0.374847,0.357758,11.267151
2019-01-28 22:24:49:2449,-0.090820,-0.127914,-0.161819,0.190598,0.360138,11.494476
2019-01-28 22:24:49:2449,-0.090820,-0.127914,-0.161819,0.088913,0.457062,11.856979
2019-01-28 22:24:49:2449,-0.090820,-0.127914,-0.161819,0.124802,0.658051,11.537537
2019-01-28 22:24:49:2449,-0.090820,-0.127914,-0.161819,0.254013,0.952362,10.258575
2019-01-28 22:24:49:2449,-0.090820,-0.127914,-0.161819,0.157104,1.052872,8.938934
2019-01-28 22:24:49:2449,-0.090820,-0.127914,-0.161819,0.117615,0.900925,8.310822
2019-01-28 22:24:49:2449,-0.090820,-0.127914,-0.161819,0.259995,0.723862,8.696060
2019-01-28 22:24:49:2449,-0.090820,-0.127914,-0.161819,0.275543,0.644897,9.307434
2019-01-28 22:24:49:2449,-0.090820,-0.127914,-0.161819,0.309052,0.770523,9.294266
2019-01-28 22:24:49:2449,-0.002792,-0.129379,0.067245,0.309052,0.770523,9.294266
2019-01-28 22:24:49:2449,-0.002792,-0.129379,0.067245,0.392792,0.806412,9.421097
2019-01-28 22:24:49:2449,-0.002792,-0.129379,0.067245,0.663177,0.524048,9.940323
2019-01-28 22:24:49:2449,-0.002792,-0.129379,0.067245,0.907257,0.234528,10.794571
2019-01-28 22:24:49:2449,-0.002792,-0.129379,0.067245,0.824692,0.244095,11.344910
2019-01-28 22:24:49:2449,-0.002792,-0.129379,0.067245,0.677536,0.515686,10.910614
2019-01-28 22:24:49:2449,-0.002792,-0.129379,0.067245,0.437073,0.949982,10.030060
2019-01-28 22:24:49:2449,-0.002792,-0.129379,0.067245,0.189407,1.289764,9.346909
2019-01-28 22:24:49:2449,-0.002792,-0.129379,0.067245,0.236069,1.182083,9.205734
2019-01-28 22:24:49:2449,-0.002792,-0.129379,0.067245,0.378433,0.784866,9.309830
2019-01-28 22:24:49:2449,0.014679,-0.064636,0.158752,0.378433,0.784866,9.309830
2019-01-28 22:24:49:2449,0.014679,-0.064636,0.158752,0.624893,0.690353,9.466553
2019-01-28 22:24:49:2449,0.014679,-0.064636,0.158752,0.685913,0.728638,9.360077
2019-01-28 22:24:49:2449,0.014679,-0.064636,0.158752,0.818726,0.804016,8.874329
2019-01-28 22:24:49:2449,0.014679,-0.064636,0.158752,0.701477,0.839905,9.455780
2019-01-28 22:24:49:2449,0.014679,-0.064636,0.158752,1.128586,0.666428,9.632858
2019-01-28 22:24:49:2449,0.014679,-0.064636,0.158752,1.617920,0.429535,9.519196
2019-01-28 22:24:49:2449,0.014679,-0.064636,0.158752,1.346329,0.811188,9.770447
2019-01-28 22:24:49:2449,0.014679,-0.064636,0.158752,0.565079,1.451279,9.592178
2019-01-28 22:24:49:2449,0.014679,-0.064636,0.158752,0.404755,1.076797,9.319397
2019-01-28 22:24:49:2449,0.014679,-0.064636,0.158752,1.166870,-0.218933,10.174835
2019-01-28 22:24:49:2449,-0.011703,0.102661,0.086731,1.166870,-0.218933,10.174835
2019-01-28 22:24:49:2449,-0.011703,0.102661,0.086731,1.219513,-0.376846,12.050797
2019-01-28 22:24:49:2449,-0.011703,0.102661,0.086731,0.676346,0.659241,11.437042
2019-01-28 22:24:49:2449,-0.011703,0.102661,0.086731,-0.086975,1.562546,8.864761
2019-01-28 22:24:49:2449,-0.011703,0.102661,0.086731,-0.272415,1.537415,7.900452
2019-01-28 22:24:49:2449,-0.011703,0.102661,0.086731,0.012344,1.166534,8.149307
2019-01-28 22:24:49:2449,-0.011703,0.102661,0.086731,0.023102,1.000229,7.048599
2019-01-28 22:24:49:2449,-0.011703,0.102661,0.086731,0.867767,1.182083,8.437637
2019-01-28 22:24:49:2449,-0.011703,0.102661,0.086731,0.761292,0.491760,8.194763
2019-01-28 22:24:49:2449,-0.011703,0.102661,0.086731,0.425095,0.075394,9.026276
2019-01-28 22:24:49:2449,-0.300583,0.132965,0.044098,0.425095,0.075394,9.026276
2019-01-28 22:24:49:2449,-0.300583,0.132965,0.044098,-0.270020,0.352966,9.607727
2019-01-28 22:24:49:2449,-0.300583,0.132965,0.044098,-0.246094,0.904510,9.317001
2019-01-28 22:24:49:2449,-0.300583,0.132965,0.044098,0.587814,0.744186,8.980804
2019-01-28 22:24:49:2449,-0.300583,0.132965,0.044098,0.794785,-0.080139,10.505035
2019-01-28 22:24:49:2449,-0.300583,0.132965,0.044098,1.153717,-1.173660,12.772232
2019-01-28 22:24:49:2449,-0.300583,0.132965,0.044098,1.196777,-2.478943,13.127563
2019-01-28 22:24:49:2449,-0.300583,0.132965,0.044098,0.459793,-1.819717,11.541138
2019-01-28 22:24:49:2449,-0.300583,0.132965,0.044098,-0.376495,0.807602,9.409119
2019-01-28 22:24:49:2449,-0.300583,0.132965,0.044098,-0.851471,2.802017,6.848801
2019-01-28 22:24:50:2450,0.178879,0.212067,0.052094,-0.851471,2.802017,6.848801
2019-01-28 22:24:50:2450,0.178879,0.212067,0.052094,-0.121674,1.543396,6.096268
2019-01-28 22:24:50:2450,0.178879,0.212067,0.052094,-0.101334,-1.057617,9.236832
2019-01-28 22:24:50:2450,0.178879,0.212067,0.052094,0.179840,-2.096085,13.155090
2019-01-28 22:24:50:2450,0.178879,0.212067,0.052094,0.462189,-1.922607,13.324982
2019-01-28 22:24:50:2450,0.178879,0.212067,0.052094,0.384415,-1.487122,11.620087
2019-01-28 22:24:50:2450,0.178879,0.212067,0.052094,0.051819,-0.930786,10.385391
2019-01-28 22:24:50:2450,0.178879,0.212067,0.052094,-0.274811,-0.346939,9.724976
2019-01-28 22:24:50:2450,0.178879,0.212067,0.052094,-0.250885,0.053864,9.705826
2019-01-28 22:24:50:2450,0.178879,0.212067,0.052094,-0.187469,0.039505,9.669937
2019-01-28 22:24:50:2450,0.178879,0.212067,0.052094,-0.240112,-0.509659,9.428268
2019-01-28 22:24:50:2450,0.147842,0.022583,-0.094620,-0.240112,-0.509659,9.428268
2019-01-28 22:24:50:2450,0.147842,0.022583,-0.094620,-0.162338,-0.955917,8.967651
2019-01-28 22:24:50:2450,0.147842,0.022583,-0.094620,-0.151581,-1.051620,9.137543
2019-01-28 22:24:50:2450,0.147842,0.022583,-0.094620,0.114029,-0.528793,9.251205
2019-01-28 22:24:50:2450,0.147842,0.022583,-0.094620,0.563873,-0.433090,9.011917
2019-01-28 22:24:50:2450,0.147842,0.022583,-0.094620,1.101074,-1.277740,8.859970
2019-01-28 22:24:50:2450,0.147842,0.022583,-0.094620,0.628494,-1.537369,10.120987
2019-01-28 22:24:50:2450,0.147842,0.022583,-0.094620,0.006363,-0.673553,10.682114
2019-01-28 22:24:50:2450,0.147842,0.022583,-0.094620,-0.346588,0.215378,9.892471
2019-01-28 22:24:50:2450,0.147842,0.022583,-0.094620,-0.320282,0.107697,9.019104
2019-01-28 22:24:50:2450,0.273804,-0.111664,-0.024612,-0.320282,0.107697,9.019104
2019-01-28 22:24:50:2450,0.273804,-0.111664,-0.024612,0.061386,-0.101685,9.362473
2019-01-28 22:24:50:2450,0.273804,-0.111664,-0.024612,0.087708,-0.058609,10.336349
2019-01-28 22:24:50:2450,0.273804,-0.111664,-0.024612,0.208542,0.423553,9.563461
2019-01-28 22:24:50:2450,0.273804,-0.111664,-0.024612,0.024307,0.808792,8.605133
2019-01-28 22:24:50:2450,0.273804,-0.111664,-0.024612,-0.185074,0.702316,8.767853
2019-01-28 22:24:50:2450,0.273804,-0.111664,-0.024612,-0.248489,0.285965,9.477325
2019-01-28 22:24:50:2450,0.273804,-0.111664,-0.024612,-0.165939,0.020370,9.763260
2019-01-28 22:24:50:2450,0.273804,-0.111664,-0.024612,-0.147995,0.242905,10.130554
2019-01-28 22:24:50:2450,0.273804,-0.111664,-0.024612,-0.156372,0.655655,9.986984
2019-01-28 22:24:50:2450,0.273804,-0.111664,-0.024612,0.445435,0.153168,9.852997
2019-01-28 22:24:50:2450,0.273804,-0.111664,-0.024612,0.775650,-0.001175,9.634048
2019-01-28 22:24:50:2450,0.273804,-0.111664,-0.024612,-0.402832,1.026550,9.393570
2019-01-28 22:24:50:2450,0.273804,-0.111664,-0.024612,-1.252274,2.591446,7.929169
2019-01-28 22:24:50:2450,0.273804,-0.111664,-0.024612,-0.030746,2.616577,5.912018
2019-01-28 22:24:50:2450,0.273804,-0.111664,-0.024612,1.267365,0.932022,6.016098
2019-01-28 22:24:50:2450,0.273804,-0.111664,-0.024612,0.572266,-0.248840,10.008530
2019-01-28 22:24:50:2450,0.273804,-0.111664,-0.024612,0.656006,-0.370865,13.236450
2019-01-28 22:24:50:2450,0.273804,-0.111664,-0.024612,1.601166,-0.963089,12.999557
2019-01-28 22:24:50:2450,0.273804,-0.111664,-0.024612,1.628693,-0.851822,12.541336
2019-01-28 22:24:50:2450,-0.078842,-0.105804,0.024185,1.628693,-0.851822,12.541336
2019-01-28 22:24:50:2450,-0.078842,-0.105804,0.024185,0.122406,0.486969,12.424072
2019-01-28 22:24:50:2450,-0.078842,-0.105804,0.024185,-0.838318,1.810196,11.090073
2019-01-28 22:24:50:2450,-0.078842,-0.105804,0.024185,-0.725861,1.986069,9.619690
2019-01-28 22:24:50:2450,-0.078842,-0.105804,0.024185,-0.256866,1.227554,9.115997
2019-01-28 22:24:50:2450,-0.078842,-0.105804,0.024185,0.539948,0.308701,9.556290
2019-01-28 22:24:50:2450,-0.078842,-0.105804,0.024185,1.032867,0.046692,9.574234
2019-01-28 22:24:50:2450,-0.078842,-0.105804,0.024185,0.709839,0.355362,8.699646
2019-01-28 22:24:50:2450,-0.078842,-0.105804,0.024185,0.226486,0.808807,7.657578
2019-01-28 22:24:50:2450,-0.078842,-0.105804,0.024185,-0.018768,0.991852,7.774826
2019-01-28 22:24:50:2450,-0.078842,-0.105804,0.024185,0.203766,0.467819,9.187790
2019-01-28 22:24:51:2451,-0.011459,-0.032455,-0.011002,0.203766,0.467819,9.187790
2019-01-28 22:24:51:2451,-0.011459,-0.032455,-0.011002,0.732574,-0.502472,10.606735
2019-01-28 22:24:51:2451,-0.011459,-0.032455,-0.011002,1.043640,-1.061203,11.969437
2019-01-28 22:24:51:2451,-0.011459,-0.032455,-0.011002,0.816330,-0.545547,11.676331
2019-01-28 22:24:51:2451,-0.011459,-0.032455,-0.011002,0.062592,0.532425,9.750092
2019-01-28 22:24:51:2451,-0.011459,-0.032455,-0.011002,-0.381287,1.415375,7.577423
2019-01-28 22:24:51:2451,-0.011459,-0.032455,-0.011002,-0.210205,1.317276,6.778214
2019-01-28 22:24:51:2451,-0.011459,-0.032455,-0.011002,0.141556,0.522858,8.121780
2019-01-28 22:24:51:2451,-0.011459,-0.032455,-0.011002,0.438263,-0.141159,9.893677
2019-01-28 22:24:51:2451,-0.011459,-0.032455,-0.011002,0.681137,-0.275162,11.142731
2019-01-28 22:24:51:2451,0.021759,0.053925,-0.076294,0.681137,-0.275162,11.142731
2019-01-28 22:24:51:2451,0.021759,0.053925,-0.076294,0.513626,-0.183029,11.280304
2019-01-28 22:24:51:2451,0.021759,0.053925,-0.076294,0.332977,-0.087326,10.651001
2019-01-28 22:24:51:2451,0.021759,0.053925,-0.076294,-0.084579,0.332626,10.076721
2019-01-28 22:24:51:2451,0.021759,0.053925,-0.076294,-0.339417,1.206009,9.685501
2019-01-28 22:24:51:2451,0.021759,0.053925,-0.076294,-0.535629,1.767120,9.159073
2019-01-28 22:24:51:2451,0.021759,0.053925,-0.076294,-0.876602,1.787460,8.873138
2019-01-28 22:24:51:2451,0.021759,0.053925,-0.076294,-0.511703,1.787460,9.917603
2019-01-28 22:24:51:2451,0.021759,0.053925,-0.076294,0.139160,1.889160,11.568649
2019-01-28 22:24:51:2451,0.021759,0.053925,-0.076294,1.171661,1.506302,12.707626
2019-01-28 22:24:51:2451,0.028427,-0.085098,0.109879,1.171661,1.506302,12.707626
2019-01-28 22:24:51:2451,0.028427,-0.085098,0.109879,1.497086,0.739410,12.386993
2019-01-28 22:24:51:2451,0.028427,-0.085098,0.109879,1.256607,0.479782,11.618896
2019-01-28 22:24:51:2451,0.028427,-0.085098,0.109879,0.842651,0.782486,10.288483
2019-01-28 22:24:51:2451,0.028427,-0.085098,0.109879,0.723007,1.066025,8.450790
2019-01-28 22:24:51:2451,0.028427,-0.085098,0.109879,0.584229,0.896133,7.406326
2019-01-28 22:24:51:2451,0.028427,-0.085098,0.109879,0.175049,0.467834,7.010315
2019-01-28 22:24:51:2451,0.028427,-0.085098,0.109879,-0.168335,0.294342,7.592972
2019-01-28 22:24:51:2451,0.028427,-0.085098,0.109879,-0.053482,0.599426,8.054779
2019-01-28 22:24:51:2451,0.028427,-0.085098,0.109879,-0.083389,1.221558,8.048813
2019-01-28 22:24:51:2451,0.028427,-0.085098,0.109879,-0.243698,1.704910,8.649399
2019-01-28 22:24:51:2451,-0.069626,0.059357,-0.070496,-0.243698,1.704910,8.649399
2019-01-28 22:24:51:2451,-0.069626,0.059357,-0.070496,-0.276001,1.915482,10.165253
2019-01-28 22:24:51:2451,-0.069626,0.059357,-0.070496,-0.399231,1.887970,12.517395
2019-01-28 22:24:51:2451,-0.069626,0.059357,-0.070496,-0.553574,1.860443,13.661163
2019-01-28 22:24:51:2451,-0.069626,0.059357,-0.070496,-0.272415,1.706116,12.634659
2019-01-28 22:24:51:2451,-0.069626,0.059357,-0.070496,-0.091751,1.415375,11.184601
2019-01-28 22:24:51:2451,-0.069626,0.059357,-0.070496,0.238464,1.040909,9.930756
2019-01-28 22:24:51:2451,-0.069626,0.059357,-0.070496,0.344940,0.640106,9.326569
2019-01-28 22:24:51:2451,-0.069626,0.059357,-0.070496,0.502869,0.308701,8.836044
2019-01-28 22:24:51:2451,-0.069626,0.059357,-0.070496,0.638062,0.051483,8.551300
2019-01-28 22:24:51:2451,0.272949,0.056000,0.074890,0.638062,0.051483,8.551300
2019-01-28 22:24:51:2451,0.272949,0.056000,0.074890,0.544739,0.076599,8.655380
2019-01-28 22:24:51:2451,0.272949,0.056000,0.074890,0.268372,0.326645,8.666153
2019-01-28 22:24:51:2451,0.272949,0.056000,0.074890,0.222900,0.711899,8.657776
2019-01-28 22:24:51:2451,0.272949,0.056000,0.074890,0.299469,1.160553,8.779800
2019-01-28 22:24:51:2451,0.272949,0.056000,0.074890,0.146332,1.630737,8.766647
2019-01-28 22:24:51:2451,0.272949,0.056000,0.074890,-0.092957,1.957352,8.980804
2019-01-28 22:24:51:2451,0.272949,0.056000,0.074890,-0.145599,1.810196,9.596954
2019-01-28 22:24:51:2451,0.272949,0.056000,0.074890,-0.341812,1.536224,10.272934
2019-01-28 22:24:51:2451,0.272949,0.056000,0.074890,-0.498535,1.360336,10.740738
2019-01-28 22:24:51:2451,0.272949,0.056000,0.074890,-0.218582,1.124649,10.475128
2019-01-28 22:24:51:2451,0.135315,0.035110,0.157776,-0.218582,1.124649,10.475128
2019-01-28 22:24:51:2451,0.135315,0.035110,0.157776,0.009949,0.973907,9.995361
2019-01-28 22:24:51:2451,0.135315,0.035110,0.157776,0.208542,1.317276,9.446213
2019-01-28 22:24:51:2451,0.135315,0.035110,0.157776,0.269562,1.783875,8.755890
2019-01-28 22:24:51:2451,0.135315,0.035110,0.157776,0.265976,1.660645,8.523773
2019-01-28 22:24:51:2451,0.135315,0.035110,0.157776,0.350922,0.994247,9.465363
2019-01-28 22:24:51:2451,0.135315,0.035110,0.157776,0.636856,0.719070,10.563660
2019-01-28 22:24:51:2451,0.135315,0.035110,0.157776,0.617722,0.927246,10.945313
2019-01-28 22:24:51:2451,0.135315,0.035110,0.157776,0.148727,1.240707,9.911621
2019-01-28 22:24:51:2451,0.135315,0.035110,0.157776,-0.118073,1.409393,9.464157
2019-01-28 22:24:52:2452,-0.186844,0.196487,-0.151611,-0.118073,1.409393,9.464157
2019-01-28 22:24:52:2452,-0.186844,0.196487,-0.151611,-0.246094,1.366318,10.126968
2019-01-28 22:24:52:2452,-0.186844,0.196487,-0.151611,-0.253281,1.083984,9.602936
2019-01-28 22:24:52:2452,-0.186844,0.196487,-0.151611,-0.175507,0.616180,8.941330
2019-01-28 22:24:52:2452,-0.186844,0.196487,-0.151611,-0.130035,0.482178,8.551300
2019-01-28 22:24:52:2452,-0.186844,0.196487,-0.151611,-0.286774,0.860245,8.375427
2019-01-28 22:24:52:2452,-0.186844,0.196487,-0.151611,-0.820374,1.217972,8.487885
2019-01-28 22:24:52:2452,-0.186844,0.196487,-0.151611,-0.357361,0.508499,11.029068
2019-01-28 22:24:52:2452,-0.186844,0.196487,-0.151611,0.761292,-1.298080,13.999756
2019-01-28 22:24:52:2452,-0.186844,0.196487,-0.151611,0.398773,-0.845840,11.070938
2019-01-28 22:24:52:2452,-0.186844,0.196487,-0.151611,-0.317871,0.247681,9.111221
2019-01-28 22:24:52:2452,0.319122,-0.031723,-0.257904,-0.317871,0.247681,9.111221
2019-01-28 22:24:52:2452,0.319122,-0.031723,-0.257904,-0.442307,0.899734,9.149506
2019-01-28 22:24:52:2452,0.319122,-0.031723,-0.257904,-0.660049,1.305313,9.978607
2019-01-28 22:24:52:2452,0.319122,-0.031723,-0.257904,-0.764145,1.549377,9.801544
2019-01-28 22:24:52:2452,0.319122,-0.031723,-0.257904,-0.605026,1.298141,9.251190
2019-01-28 22:24:52:2452,0.319122,-0.031723,-0.257904,-0.423172,1.125854,8.864761
2019-01-28 22:24:52:2452,0.319122,-0.031723,-0.257904,-0.345398,1.314880,8.334747
2019-01-28 22:24:52:2452,0.319122,-0.031723,-0.257904,-0.049881,1.390259,8.217499
2019-01-28 22:24:52:2452,0.319122,-0.031723,-0.257904,-0.114487,1.475204,8.357468
2019-01-28 22:24:52:2452,0.319122,-0.031723,-0.257904,0.143936,1.074402,8.341934
2019-01-28 22:24:52:2452,0.319122,-0.031723,-0.257904,-0.188660,1.148575,8.806137
2019-01-28 22:24:52:2452,0.319122,-0.031723,-0.257904,-0.340607,1.093552,9.635254
2019-01-28 22:24:52:2452,0.319122,-0.031723,-0.257904,0.172653,0.981079,9.574219
2019-01-28 22:24:52:2452,0.319122,-0.031723,-0.257904,0.074554,0.850677,10.342316
2019-01-28 22:24:52:2452,0.319122,-0.031723,-0.257904,-0.023560,0.720261,11.110413
2019-01-28 22:24:52:2452,0.319122,-0.031723,-0.257904,-0.514084,0.722656,11.258774
2019-01-28 22:24:52:2452,0.319122,-0.031723,-0.257904,0.172653,0.981079,9.574219
2019-01-28 22:24:52:2452,0.319122,-0.031723,-0.257904,0.370071,0.397842,9.888275
2019-01-28 22:24:52:2452,0.319122,-0.031723,-0.257904,0.829483,0.061050,10.004929
2019-01-28 22:24:52:2452,0.319122,-0.031723,-0.257904,0.895294,0.134033,10.086288
2019-01-28 22:24:52:2452,0.319122,-0.031723,-0.257904,0.422714,0.374496,9.981003
2019-01-28 22:24:52:2452,0.319122,-0.031723,-0.257904,0.390396,0.323059,9.555084
2019-01-28 22:24:52:2452,0.319122,-0.031723,-0.257904,0.453812,0.166336,9.324188
2019-01-28 22:24:52:2452,0.319122,-0.031723,-0.257904,0.404755,0.337418,9.027466
2019-01-28 22:24:52:2452,0.319122,-0.031723,-0.257904,0.233673,0.677200,8.692474
2019-01-28 22:24:52:2452,-0.038681,-0.226883,0.075226,0.233673,0.677200,8.692474
2019-01-28 22:24:52:2452,-0.038681,-0.226883,0.075226,0.005157,0.693939,8.764252
2019-01-28 22:24:52:2452,-0.038681,-0.226883,0.075226,-0.000839,-0.058609,9.364853
2019-01-28 22:24:52:2452,-0.038681,-0.226883,0.075226,0.396378,-0.668777,10.782608
2019-01-28 22:24:52:2452,-0.038681,-0.226883,0.075226,0.581818,-0.301483,11.545914
2019-01-28 22:24:52:2452,-0.038681,-0.226883,0.075226,0.318619,0.527649,10.260971
2019-01-28 22:24:52:2452,-0.038681,-0.226883,0.075226,-0.036728,1.076797,9.057373
2019-01-28 22:24:52:2452,-0.038681,-0.226883,0.075226,-0.375305,0.862640,9.322983
2019-01-28 22:24:52:2452,-0.038681,-0.226883,0.075226,-0.224564,0.547974,10.058777
2019-01-28 22:24:52:2452,-0.038681,-0.226883,0.075226,0.190598,0.157944,9.942719
2019-01-28 22:24:52:2452,0.018341,-0.042038,0.074203,0.190598,0.157944,9.942719
2019-01-28 22:24:52:2452,0.018341,-0.042038,0.074203,0.496887,0.181885,9.518005
2019-01-28 22:24:52:2452,0.018341,-0.042038,0.074203,0.460983,0.472610,9.197357
2019-01-28 22:24:52:2452,0.018341,-0.042038,0.074203,0.372452,0.677200,8.875534
2019-01-28 22:24:52:2452,0.018341,-0.042038,0.074203,0.481339,0.678391,9.001144
2019-01-28 22:24:52:2452,0.018341,-0.042038,0.074203,0.714630,0.573105,9.137543
2019-01-28 22:24:53:2453,0.018341,-0.042038,0.074203,0.684723,0.780090,9.143524
2019-01-28 22:24:53:2453,0.018341,-0.042038,0.074203,0.672760,0.996643,8.740326
2019-01-28 22:24:53:2453,0.018341,-0.042038,0.074203,1.029282,0.728638,8.497467
2019-01-28 22:24:53:2453,0.018341,-0.042038,0.074203,1.055603,0.324265,9.436646
2019-01-28 22:24:53:2453,0.018341,-0.042038,0.074203,0.758896,0.224945,10.729965
2019-01-28 22:24:53:2453,0.023468,-0.016815,0.066452,0.758896,0.224945,10.729965
2019-01-28 22:24:53:2453,0.023468,-0.016815,0.066452,0.270752,0.408005,10.779007
2019-01-28 22:24:53:2453,0.023468,-0.016815,0.066452,0.213333,0.327850,10.337540
2019-01-28 22:24:53:2453,0.023468,-0.016815,0.066452,0.220505,0.346985,10.140137
2019-01-28 22:24:53:2453,0.023468,-0.016815,0.066452,-0.049881,0.979889,9.623276
2019-01-28 22:24:53:2453,0.023468,-0.016815,0.066452,-0.469833,1.651077,8.685303
2019-01-28 22:24:53:2453,0.023468,-0.016815,0.066452,-0.430344,1.736023,7.610916
2019-01-28 22:24:53:2453,0.023468,-0.016815,0.066452,-0.369324,1.159348,8.237839
2019-01-28 22:24:53:2453,0.023468,-0.016815,0.066452,-0.008011,0.336212,10.107819
2019-01-28 22:24:53:2453,0.023468,-0.016815,0.066452,0.440659,-0.087311,11.391571
2019-01-28 22:24:53:2453,-0.036270,0.101379,0.109146,0.440659,-0.087311,11.391571
2019-01-28 22:24:53:2453,-0.036270,0.101379,0.109146,0.685913,0.009598,11.141525
2019-01-28 22:24:53:2453,-0.036270,0.101379,0.109146,0.417923,0.296738,10.593567
2019-01-28 22:24:53:2453,-0.036270,0.101379,0.109146,0.032684,0.611389,10.308823
2019-01-28 22:24:53:2453,-0.036270,0.101379,0.109146,-0.246094,0.977493,10.116211
2019-01-28 22:24:53:2453,-0.036270,0.101379,0.109146,-0.131241,1.283768,9.485703
2019-01-28 22:24:53:2453,-0.036270,0.101379,0.109146,0.060196,1.405807,8.355087
2019-01-28 22:24:53:2453,-0.036270,0.101379,0.109146,-0.069031,1.229935,7.864548
2019-01-28 22:24:53:2453,-0.036270,0.101379,0.109146,0.175049,0.857849,8.090683
2019-01-28 22:24:53:2453,-0.036270,0.101379,0.109146,0.322205,0.466629,8.688889
2019-01-28 22:24:53:2453,-0.036270,0.101379,0.109146,0.297089,0.138809,9.674728
2019-01-28 22:24:53:2453,-0.000839,0.145859,-0.003601,0.297089,0.138809,9.674728
2019-01-28 22:24:53:2453,-0.000839,0.145859,-0.003601,0.435867,-0.185425,10.685699
2019-01-28 22:24:53:2453,-0.000839,0.145859,-0.003601,0.452621,-0.573059,11.289886
2019-01-28 22:24:53:2453,-0.000839,0.145859,-0.003601,0.051819,-0.211746,11.518387
2019-01-28 22:24:53:2453,-0.000839,0.145859,-0.003601,-0.607422,0.952362,10.720383
2019-01-28 22:24:53:2453,-0.000839,0.145859,-0.003601,-0.874207,1.572113,9.931961
2019-01-28 22:24:53:2453,-0.000839,0.145859,-0.003601,-0.242508,0.636520,10.180801
2019-01-28 22:24:53:2453,-0.000839,0.145859,-0.003601,-0.144394,-0.038269,11.715805
2019-01-28 22:24:53:2453,-0.000839,0.145859,-0.003601,-0.238922,0.459442,11.664352
2019-01-28 22:24:53:2453,-0.000839,0.145859,-0.003601,-0.274811,1.497940,9.321793
2019-01-28 22:24:53:2453,0.163849,0.152634,0.007629,-0.274811,1.497940,9.321793
2019-01-28 22:24:53:2453,0.163849,0.152634,0.007629,-0.563141,2.159546,7.158676
2019-01-28 22:24:53:2453,0.163849,0.152634,0.007629,-0.809616,2.306702,6.774628
2019-01-28 22:24:53:2453,0.163849,0.152634,0.007629,-0.905319,2.030334,8.058380
2019-01-28 22:24:53:2453,0.163849,0.152634,0.007629,-0.189865,1.024155,9.393570
2019-01-28 22:24:53:2453,0.163849,0.152634,0.007629,0.636856,-1.001373,10.838837
2019-01-28 22:24:53:2453,0.163849,0.152634,0.007629,1.166870,-2.469376,12.489883
2019-01-28 22:24:53:2453,0.163849,0.152634,0.007629,1.396576,-2.493301,12.109421
2019-01-28 22:24:53:2453,0.163849,0.152634,0.007629,1.084320,-1.805359,9.319397
2019-01-28 22:24:53:2453,0.163849,0.152634,0.007629,-0.248489,-0.356506,7.797562
2019-01-28 22:24:53:2453,0.021515,0.186478,-0.143188,-0.248489,-0.356506,7.797562
2019-01-28 22:24:53:2453,0.021515,0.186478,-0.143188,-2.220169,1.593643,6.467148
2019-01-28 22:24:53:2453,0.021515,0.186478,-0.143188,-3.307709,2.986267,4.173630
2019-01-28 22:24:53:2453,0.021515,0.186478,-0.143188,-3.357956,4.703110,2.045212
2019-01-28 22:24:53:2453,0.021515,0.186478,-0.143188,-2.671219,4.006805,2.828857
2019-01-28 22:24:53:2453,0.021515,0.186478,-0.143188,-1.313293,0.911682,8.693665
2019-01-28 22:24:53:2453,0.021515,0.186478,-0.143188,-0.564346,-2.441849,18.964859
2019-01-28 22:24:53:2453,0.021515,0.186478,-0.143188,1.226700,-3.887131,24.420502
2019-01-28 22:24:53:2453,0.021515,0.186478,-0.143188,2.571457,-3.166885,20.961670
2019-01-28 22:24:53:2453,0.021515,0.186478,-0.143188,1.438461,-1.428497,15.019104
2019-01-28 22:24:53:2453,0.021515,0.186478,-0.143188,-0.560760,0.620956,10.850800
2019-01-28 22:24:54:2454,0.289627,0.056244,-0.075378,-0.560760,0.620956,10.850800
2019-01-28 22:24:54:2454,0.289627,0.056244,-0.075378,-1.660248,2.100922,8.456772
2019-01-28 22:24:54:2454,0.289627,0.056244,-0.075378,-2.107712,2.341400,6.323578
2019-01-28 22:24:54:2454,0.289627,0.056244,-0.075378,-2.124466,1.666626,4.477509
2019-01-28 22:24:54:2454,0.289627,0.056244,-0.075378,-1.550186,0.607803,3.986984
2019-01-28 22:24:54:2454,0.289627,0.056244,-0.075378,-0.441116,-0.686722,5.171432
2019-01-28 22:24:54:2454,0.289627,0.056244,-0.075378,0.002762,-1.296890,6.730362
2019-01-28 22:24:54:2454,0.289627,0.056244,-0.075378,-0.627747,-0.340958,7.519989
2019-01-28 22:24:54:2454,0.289627,0.056244,-0.075378,-1.832535,1.722855,6.513809
2019-01-28 22:24:54:2454,0.289627,0.056244,-0.075378,-0.856262,1.732422,5.562668
2019-01-28 22:24:54:2454,-0.533936,-0.319611,0.107620,-0.856262,1.732422,5.562668
2019-01-28 22:24:54:2454,-0.533936,-0.319611,0.107620,0.323410,-0.571869,8.020096
2019-01-28 22:24:54:2454,-0.533936,-0.319611,0.107620,-0.840714,-2.462204,15.436646
2019-01-28 22:24:54:2454,-0.533936,-0.319611,0.107620,-0.853882,-1.948929,20.650604
2019-01-28 22:24:54:2454,-0.533936,-0.319611,0.107620,-0.715088,-0.626892,17.288681
2019-01-28 22:24:54:2454,-0.533936,-0.319611,0.107620,-0.024765,0.357758,11.983810
2019-01-28 22:24:54:2454,-0.533936,-0.319611,0.107620,-0.090561,0.865036,9.051392
2019-01-28 22:24:54:2454,-0.533936,-0.319611,0.107620,-0.772522,0.989456,8.309616
2019-01-28 22:24:54:2454,-0.533936,-0.319611,0.107620,-1.050079,0.717865,7.621689
2019-01-28 22:24:54:2454,-0.533936,-0.319611,0.107620,-0.532043,0.335022,6.992371
2019-01-28 22:24:54:2454,-0.533936,-0.319611,0.107620,-0.124069,0.029938,7.845413
2019-01-28 22:24:54:2454,0.215591,-0.062012,0.058884,-0.124069,0.029938,7.845413
2019-01-28 22:24:54:2454,0.215591,-0.062012,0.058884,0.136765,-0.102875,8.446014
2019-01-28 22:24:54:2454,0.215591,-0.062012,0.058884,0.670364,-0.362503,9.393570
2019-01-28 22:24:54:2454,0.215591,-0.062012,0.058884,1.075943,-0.784821,11.270737
2019-01-28 22:24:54:2454,0.215591,-0.062012,0.058884,1.154907,-0.818329,12.431259
2019-01-28 22:24:54:2454,0.215591,-0.062012,0.058884,0.822311,-0.474960,12.585587
2019-01-28 22:24:54:2454,0.215591,-0.062012,0.058884,0.256409,0.150772,11.660767
2019-01-28 22:24:54:2454,0.215591,-0.062012,0.058884,-0.575104,1.140213,10.176025
2019-01-28 22:24:54:2454,0.215591,-0.062012,0.058884,-1.291763,1.907104,8.485489
2019-01-28 22:24:54:2454,0.215591,-0.062012,0.058884,-1.306107,2.103317,6.846405
2019-01-28 22:24:54:2454,0.219925,-0.040817,-0.044113,-1.306107,2.103317,6.846405
2019-01-28 22:24:54:2454,0.219925,-0.040817,-0.044113,-1.029739,1.523056,6.781799
2019-01-28 22:24:54:2454,0.219925,-0.040817,-0.044113,-0.241302,0.729843,7.886093
2019-01-28 22:24:54:2454,0.219925,-0.040817,-0.044113,0.080536,0.101715,9.325378
2019-01-28 22:24:54:2454,0.219925,-0.040817,-0.044113,0.196579,-0.072952,10.688095
2019-01-28 22:24:54:2454,0.219925,-0.040817,-0.044113,0.270767,0.099335,11.731354
2019-01-28 22:24:54:2454,0.219925,-0.040817,-0.044113,0.380829,0.434326,11.895264
2019-01-28 22:24:54:2454,0.219925,-0.040817,-0.044113,-0.022369,0.796829,11.908432
2019-01-28 22:24:54:2454,0.219925,-0.040817,-0.044113,-0.406418,1.046890,11.470535
2019-01-28 22:24:54:2454,0.219925,-0.040817,-0.044113,-0.570328,1.049271,10.741928
2019-01-28 22:24:54:2454,0.219925,-0.040817,-0.044113,-0.359756,0.845886,10.094666
2019-01-28 22:24:54:2454,0.167084,-0.012589,0.161804,-0.359756,0.845886,10.094666
2019-01-28 22:24:54:2454,0.167084,-0.012589,0.161804,-0.272415,0.451080,10.012115
2019-01-28 22:24:54:2454,0.167084,-0.012589,0.161804,-0.096542,0.324265,10.228668
2019-01-28 22:24:54:2454,0.167084,-0.012589,0.161804,-0.203018,0.642502,9.442627
2019-01-28 22:24:54:2454,0.167084,-0.012589,0.161804,-0.255661,0.922455,8.691269
2019-01-28 22:24:54:2454,0.167084,-0.012589,0.161804,0.142746,0.873413,8.381409
2019-01-28 22:24:54:2454,0.167084,-0.012589,0.161804,0.026703,0.835129,8.587189
2019-01-28 22:24:54:2454,0.167084,-0.012589,0.161804,-0.340622,0.929642,9.215302
2019-01-28 22:24:54:2454,0.167084,-0.012589,0.161804,-0.366928,1.277786,9.401947
2019-01-28 22:24:54:2454,0.167084,-0.012589,0.161804,-0.258057,1.503922,9.501251
2019-01-28 22:24:55:2455,-0.081223,-0.072876,0.182877,-0.258057,1.503922,9.501251
2019-01-28 22:24:55:2455,-0.081223,-0.072876,0.182877,-0.147995,1.574493,9.540726
2019-01-28 22:24:55:2455,-0.081223,-0.072876,0.182877,-0.018784,1.404617,9.819489
2019-01-28 22:24:55:2455,-0.081223,-0.072876,0.182877,1.104660,1.247879,10.524170
2019-01-28 22:24:55:2455,-0.081223,-0.072876,0.182877,1.023300,1.066025,10.746704
2019-01-28 22:24:55:2455,-0.081223,-0.072876,0.182877,0.370056,1.095947,10.483505
2019-01-28 22:24:55:2455,-0.081223,-0.072876,0.182877,-0.052277,1.101913,10.790970
2019-01-28 22:24:55:2455,-0.081223,-0.072876,0.182877,0.157104,0.811188,11.413116
2019-01-28 22:24:55:2455,-0.081223,-0.072876,0.182877,0.267166,0.820770,11.691879
2019-01-28 22:24:55:2455,-0.081223,-0.072876,0.182877,0.233673,1.371109,11.006332
2019-01-28 22:24:55:2455,0.085236,0.060699,0.029190,0.233673,1.371109,11.006332
2019-01-28 22:24:55:2455,0.085236,0.060699,0.029190,0.012344,1.657059,9.724976
2019-01-28 22:24:55:2455,0.085236,0.060699,0.029190,-0.156372,1.354370,9.673538
2019-01-28 22:24:55:2455,0.085236,0.060699,0.029190,-0.018784,1.159348,9.858978
2019-01-28 22:24:55:2455,0.085236,0.060699,0.029190,0.405960,1.206009,9.642426
2019-01-28 22:24:55:2455,0.085236,0.060699,0.029190,0.714630,1.123459,9.090881
2019-01-28 22:24:55:2455,0.085236,0.060699,0.029190,0.769669,0.692749,9.416306
2019-01-28 22:24:55:2455,0.085236,0.060699,0.029190,0.533966,0.396042,9.970245
2019-01-28 22:24:55:2455,0.085236,0.060699,0.029190,0.480133,0.490555,9.793167
2019-01-28 22:24:55:2455,0.085236,0.060699,0.029190,0.384415,0.720261,8.845612
2019-01-28 22:24:55:2455,0.085236,0.060699,0.029190,0.092499,1.217972,7.783203
2019-01-28 22:24:55:2455,0.085236,0.060699,0.029190,-0.579895,1.885574,7.010315
2019-01-28 22:24:55:2455,0.085236,0.060699,0.029190,-0.552383,1.759949,7.001938
2019-01-28 22:24:55:2455,0.085236,0.060699,0.029190,-0.180298,0.826752,7.950699
2019-01-28 22:24:55:2455,0.085236,0.060699,0.029190,0.000381,-0.074158,10.579224
2019-01-28 22:24:55:2455,0.085236,0.060699,0.029190,0.451416,0.040695,11.039825
2019-01-28 22:24:55:2455,0.085236,0.060699,0.029190,0.507660,0.635315,9.306229
2019-01-28 22:24:55:2455,-0.102661,0.162888,-0.110687,0.507660,0.635315,9.306229
2019-01-28 22:24:55:2455,-0.102661,0.162888,-0.110687,-0.213791,0.966721,8.552490
2019-01-28 22:24:55:2455,-0.102661,0.162888,-0.110687,-0.589462,0.793243,9.605331
2019-01-28 22:24:55:2455,-0.102661,0.162888,-0.110687,-0.664841,0.467819,10.844818
2019-01-28 22:24:55:2455,-0.102661,0.162888,-0.110687,-0.290359,0.256058,10.787399
2019-01-28 22:24:55:2455,-0.102661,0.162888,-0.110687,-0.265244,0.187866,10.782608
2019-01-28 22:24:55:2455,-0.102661,0.162888,-0.110687,-0.152786,0.349380,10.714401
2019-01-28 22:24:55:2455,-0.102661,0.162888,-0.110687,-0.145599,0.539612,10.254990
2019-01-28 22:24:55:2455,-0.102661,0.162888,-0.110687,-0.232941,0.856659,9.848206
2019-01-28 22:24:55:2455,-0.102661,0.162888,-0.110687,-0.376511,1.306503,9.592178
2019-01-28 22:24:55:2455,-0.141388,-0.058472,0.072266,-0.376511,1.306503,9.592178
2019-01-28 22:24:55:2455,-0.141388,-0.058472,0.072266,-0.364532,1.678589,9.395966
2019-01-28 22:24:55:2455,-0.141388,-0.058472,0.072266,-0.477005,1.740799,9.684296
2019-01-28 22:24:55:2455,-0.141388,-0.058472,0.072266,-0.109711,1.362732,10.719193
2019-01-28 22:24:55:2455,-0.141388,-0.058472,0.072266,0.169067,0.835129,12.140533
2019-01-28 22:24:55:2455,-0.141388,-0.058472,0.072266,0.799576,0.780090,12.700455
2019-01-28 22:24:55:2455,-0.141388,-0.058472,0.072266,1.197983,0.984665,11.075729
2019-01-28 22:24:55:2455,-0.141388,-0.058472,0.072266,0.754105,0.809998,9.448608
2019-01-28 22:24:55:2455,-0.141388,-0.058472,0.072266,0.337769,0.598236,8.666153
2019-01-28 22:24:55:2455,-0.141388,-0.058472,0.072266,0.121216,0.678391,8.225876
2019-01-28 22:24:55:2455,-0.141388,-0.058472,0.072266,0.215729,0.967926,7.103638
2019-01-28 22:24:55:2455,-0.115311,-0.126526,0.010193,0.215729,0.967926,7.103638
2019-01-28 22:24:55:2455,-0.115311,-0.126526,0.010193,0.005157,1.091156,6.165649
2019-01-28 22:24:55:2455,-0.115311,-0.126526,0.010193,-0.511703,1.000229,7.180206
2019-01-28 22:24:55:2455,-0.115311,-0.126526,0.010193,-0.570328,0.915283,9.465347
2019-01-28 22:24:55:2455,-0.115311,-0.126526,0.010193,-0.222168,0.380478,11.419098
2019-01-28 22:24:55:2455,-0.115311,-0.126526,0.010193,0.423904,-0.321808,13.165848
2019-01-28 22:24:55:2455,-0.115311,-0.126526,0.010193,0.855804,-0.191406,13.799957
2019-01-28 22:24:55:2455,-0.115311,-0.126526,0.010193,0.882126,0.728638,12.339142
2019-01-28 22:24:55:2455,-0.115311,-0.126526,0.010193,0.189407,1.393845,9.726181
2019-01-28 22:24:55:2455,-0.115311,-0.126526,0.010193,-0.477005,1.453674,8.331161
2019-01-28 22:24:56:2456,-0.042130,-0.019989,-0.008133,-0.477005,1.453674,8.331161
2019-01-28 22:24:56:2456,-0.042130,-0.019989,-0.008133,-0.128845,1.002625,8.155289
2019-01-28 22:24:56:2456,-0.042130,-0.019989,-0.008133,0.535172,0.376892,7.990173
2019-01-28 22:24:56:2456,-0.042130,-0.019989,-0.008133,0.822311,-0.189011,8.443619
2019-01-28 22:24:56:2456,-0.042130,-0.019989,-0.008133,0.877335,-0.361298,9.709427
2019-01-28 22:24:56:2456,-0.042130,-0.019989,-0.008133,0.822311,-0.028702,11.023087
2019-01-28 22:24:56:2456,-0.042130,-0.019989,-0.008133,0.694290,0.425949,11.926376
2019-01-28 22:24:56:2456,-0.042130,-0.019989,-0.008133,0.522003,0.868622,12.359467
2019-01-28 22:24:56:2456,-0.042130,-0.019989,-0.008133,0.717026,1.068420,12.127365
2019-01-28 22:24:56:2456,-0.042130,-0.019989,-0.008133,0.812744,0.920074,11.414307
2019-01-28 22:24:56:2456,-0.042130,-0.019989,-0.008133,0.600967,0.798035,10.927368
2019-01-28 22:24:56:2456,0.276672,0.094543,-0.124741,0.600967,0.798035,10.927368
2019-01-28 22:24:56:2456,0.276672,0.094543,-0.124741,0.457397,0.793243,9.952301
2019-01-28 22:24:56:2456,0.276672,0.094543,-0.124741,0.417923,0.823151,8.960464
2019-01-28 22:24:56:2456,0.276672,0.094543,-0.124741,0.335358,0.658051,8.302444
2019-01-28 22:24:56:2456,0.276672,0.094543,-0.124741,0.256409,0.465424,8.083496
2019-01-28 22:24:56:2456,0.276672,0.094543,-0.124741,0.112839,0.471420,8.349106
2019-01-28 22:24:56:2456,0.276672,0.094543,-0.124741,-0.000839,0.951172,8.326370
2019-01-28 22:24:56:2456,0.276672,0.094543,-0.124741,-0.256866,1.720459,7.905228
2019-01-28 22:24:56:2456,0.276672,0.094543,-0.124741,-0.515289,2.224152,8.094269
2019-01-28 22:24:56:2456,0.276672,0.094543,-0.124741,-0.482986,1.765930,9.331360
2019-01-28 22:24:56:2456,0.054626,0.089783,-0.136154,-0.482986,1.765930,9.331360
2019-01-28 22:24:56:2456,0.054626,0.089783,-0.136154,0.054214,0.634125,11.073334
2019-01-28 22:24:56:2456,0.054626,0.089783,-0.136154,0.665573,0.007202,12.530563
2019-01-28 22:24:56:2456,0.054626,0.089783,-0.136154,0.891693,0.124451,11.414307
2019-01-28 22:24:56:2456,0.054626,0.089783,-0.136154,0.300674,0.586273,9.504837
2019-01-28 22:24:56:2456,0.054626,0.089783,-0.136154,-0.128845,0.839905,8.611115
2019-01-28 22:24:56:2456,0.054626,0.089783,-0.136154,0.114029,0.748978,8.201950
2019-01-28 22:24:56:2456,0.054626,0.089783,-0.136154,0.005157,0.851868,8.029663
2019-01-28 22:24:56:2456,0.054626,0.089783,-0.136154,-0.311905,1.350769,7.693466
2019-01-28 22:24:56:2456,0.054626,0.089783,-0.136154,-0.608612,1.942993,6.710022
2019-01-28 22:24:56:2456,-0.116226,-0.083633,-0.024689,-0.608612,1.942993,6.710022
2019-01-28 22:24:56:2456,-0.116226,-0.083633,-0.024689,-0.582291,2.104507,6.043625
2019-01-28 22:24:56:2456,-0.116226,-0.083633,-0.024689,-0.195847,1.545792,7.181412
2019-01-28 22:24:56:2456,-0.116226,-0.083633,-0.024689,0.212128,0.617371,9.721390
2019-01-28 22:24:56:2456,-0.116226,-0.083633,-0.024689,0.591400,0.101730,11.945511
2019-01-28 22:24:56:2456,-0.116226,-0.083633,-0.024689,0.542343,0.670013,12.193176
2019-01-28 22:24:56:2456,-0.116226,-0.083633,-0.024689,-0.394455,1.591263,10.890289
2019-01-28 22:24:56:2456,-0.116226,-0.083633,-0.024689,-0.922073,1.604416,9.552689
2019-01-28 22:24:56:2456,-0.116226,-0.083633,-0.024689,-0.482986,0.850677,10.240631
2019-01-28 22:24:56:2456,-0.116226,-0.083633,-0.024689,0.057800,0.463043,11.781601
2019-01-28 22:24:56:2456,-0.116226,-0.083633,-0.024689,0.271957,0.681976,11.385605
2019-01-28 22:24:56:2456,0.036179,-0.007828,0.028275,0.271957,0.681976,11.385605
2019-01-28 22:24:56:2456,0.036179,-0.007828,0.028275,0.372452,0.675995,9.742920
2019-01-28 22:24:56:2456,0.036179,-0.007828,0.028275,0.305450,0.356552,9.369644
2019-01-28 22:24:56:2456,0.036179,-0.007828,0.028275,0.123596,0.268021,10.042023
2019-01-28 22:24:56:2456,0.036179,-0.007828,0.028275,0.232483,0.297928,10.252594
2019-01-28 22:24:56:2456,0.036179,-0.007828,0.028275,0.316223,0.704712,9.724976
2019-01-28 22:24:56:2456,0.036179,-0.007828,0.028275,-0.498535,1.602020,9.039429
2019-01-28 22:24:56:2456,0.036179,-0.007828,0.028275,-1.001038,2.414383,7.968643
2019-01-28 22:24:56:2456,0.036179,-0.007828,0.028275,-0.687576,2.094940,7.777222
2019-01-28 22:24:56:2456,0.036179,-0.007828,0.028275,-0.041519,1.008606,9.246414
2019-01-28 22:24:56:2456,-0.064728,0.001144,0.127533,-0.041519,1.008606,9.246414
2019-01-28 22:24:56:2456,-0.064728,0.001144,0.127533,0.237259,0.144791,11.477722
2019-01-28 22:24:56:2456,-0.064728,0.001144,0.127533,0.202560,0.384079,11.926376
2019-01-28 22:24:56:2456,-0.064728,0.001144,0.127533,-0.214981,1.180878,9.890076
2019-01-28 22:24:56:2456,-0.064728,0.001144,0.127533,-0.353775,1.462036,8.479507
2019-01-28 22:24:56:2456,-0.064728,0.001144,0.127533,-0.232941,0.914078,8.661362
2019-01-28 22:24:56:2456,-0.064728,0.001144,0.127533,0.200180,-0.004761,10.260971
2019-01-28 22:24:56:2456,-0.064728,0.001144,0.127533,0.531570,-0.154312,10.928558
2019-01-28 22:24:56:2456,-0.064728,0.001144,0.127533,0.215729,0.433121,9.955887
2019-01-28 22:24:56:2456,-0.064728,0.001144,0.127533,-0.225754,1.154572,8.363464
2019-01-28 22:24:56:2456,-0.064728,0.001144,0.127533,-0.718674,1.308899,8.242630
2019-01-28 22:24:57:2457,-0.044266,-0.006180,0.098221,-0.718674,1.308899,8.242630
2019-01-28 22:24:57:2457,-0.044266,-0.006180,0.098221,-0.561951,1.385468,9.297852
2019-01-28 22:24:57:2457,-0.044266,-0.006180,0.098221,-0.357361,1.661835,9.678314
2019-01-28 22:24:57:2457,-0.044266,-0.006180,0.098221,-0.382492,2.287567,9.155487
2019-01-28 22:24:57:2457,-0.044266,-0.006180,0.098221,-0.290359,2.512497,8.784592
2019-01-28 22:24:57:2457,-0.044266,-0.006180,0.098221,0.109253,1.753967,9.845810
2019-01-28 22:24:57:2457,-0.044266,-0.006180,0.098221,0.897675,0.011993,12.519791
2019-01-28 22:24:57:2457,-0.044266,-0.006180,0.098221,1.694489,-1.099487,14.454391
2019-01-28 22:24:57:2457,-0.044266,-0.006180,0.098221,1.727982,-0.820724,12.876328
2019-01-28 22:24:57:2457,-0.044266,-0.006180,0.098221,1.061584,0.256058,9.300247
2019-01-28 22:24:57:2457,-0.139313,0.142014,-0.007339,1.061584,0.256058,9.300247
2019-01-28 22:24:57:2457,-0.139313,0.142014,-0.007339,0.116425,1.233536,6.258972
2019-01-28 22:24:57:2457,-0.139313,0.142014,-0.007339,-0.810806,1.937012,4.721588
2019-01-28 22:24:57:2457,-0.139313,0.142014,-0.007339,-1.499939,2.452667,4.053986
2019-01-28 22:24:57:2457,-0.139313,0.142014,-0.007339,-1.566940,2.674011,3.411514
2019-01-28 22:24:57:2457,-0.139313,0.142014,-0.007339,-1.233139,2.800827,3.214111
2019-01-28 22:24:57:2457,-0.139313,0.142014,-0.007339,-1.148193,2.292343,4.683304
2019-01-28 22:24:57:2457,-0.139313,0.142014,-0.007339,-0.942413,0.467819,8.617096
2019-01-28 22:24:57:2457,-0.139313,0.142014,-0.007339,0.002762,-1.530197,15.200958
2019-01-28 22:24:57:2457,-0.139313,0.142014,-0.007339,1.440857,-2.085327,19.037842
2019-01-28 22:24:57:2457,-0.139313,0.142014,-0.007339,1.385818,-1.061188,17.146317
2019-01-28 22:24:57:2457,0.133911,0.041519,-0.030792,1.385818,-1.061188,17.146317
2019-01-28 22:24:57:2457,0.133911,0.041519,-0.030792,0.522003,0.161545,13.381210
2019-01-28 22:24:57:2457,0.133911,0.041519,-0.030792,-0.283188,1.082779,10.447601
2019-01-28 22:24:57:2457,0.133911,0.041519,-0.030792,-1.040512,1.963333,8.752289
2019-01-28 22:24:57:2457,0.133911,0.041519,-0.030792,-1.682983,2.610596,7.307022
2019-01-28 22:24:57:2457,0.133911,0.041519,-0.030792,-1.692551,2.878586,5.927567
2019-01-28 22:24:57:2457,0.133911,0.041519,-0.030792,-1.265442,2.554367,5.977814
2019-01-28 22:24:57:2457,0.133911,0.041519,-0.030792,-0.486572,1.665436,7.430267
2019-01-28 22:24:57:2457,0.133911,0.041519,-0.030792,-0.174316,0.406799,10.112610
2019-01-28 22:24:57:2457,0.133911,0.041519,-0.030792,0.364075,-0.339767,12.310425
2019-01-28 22:24:57:2457,0.133911,0.041519,-0.030792,1.175247,-0.388809,12.126175
2019-01-28 22:24:57:2457,0.133911,0.041519,-0.030792,1.182434,-0.070572,11.207336
2019-01-28 22:24:57:2457,0.133911,0.041519,-0.030792,0.671555,0.354156,10.695267
2019-01-28 22:24:57:2457,0.133911,0.041519,-0.030792,0.015930,0.935623,10.150909
2019-01-28 22:24:57:2457,0.133911,0.041519,-0.030792,-0.450684,1.619965,9.492874
2019-01-28 22:24:57:2457,0.133911,0.041519,-0.030792,-0.816788,2.356964,8.079910
2019-01-28 22:24:57:2457,0.133911,0.041519,-0.030792,-0.937622,2.587860,7.231659
2019-01-28 22:24:57:2457,0.133911,0.041519,-0.030792,-0.451889,1.852066,7.405136
2019-01-28 22:24:57:2457,0.133911,0.041519,-0.030792,0.097290,0.704712,8.850403
2019-01-28 22:24:57:2457,0.065933,0.040848,-0.086685,0.097290,0.704712,8.850403
2019-01-28 22:24:57:2457,0.065933,0.040848,-0.086685,0.526794,0.296738,10.323181
2019-01-28 22:24:57:2457,0.065933,0.040848,-0.086685,0.556702,0.617371,10.292068
2019-01-28 22:24:57:2457,0.065933,0.040848,-0.086685,0.148727,0.900925,9.567047
2019-01-28 22:24:57:2457,0.065933,0.040848,-0.086685,-0.273621,0.653275,10.031250
2019-01-28 22:24:57:2457,0.065933,0.040848,-0.086685,-0.270020,0.618561,10.924973
2019-01-28 22:24:57:2457,0.065933,0.040848,-0.086685,-0.488968,0.903320,10.538544
2019-01-28 22:24:57:2457,0.065933,0.040848,-0.086685,-0.678009,1.471619,9.059769
2019-01-28 22:24:57:2457,0.065933,0.040848,-0.086685,-1.084778,1.752762,8.011719
2019-01-28 22:24:57:2457,0.065933,0.040848,-0.086685,-1.160156,1.235916,8.451996
2019-01-28 22:24:57:2457,0.065933,0.040848,-0.086685,-0.715088,0.741791,9.577820
2019-01-28 22:24:58:2458,-0.038589,0.007446,-0.205612,-0.715088,0.741791,9.577820
2019-01-28 22:24:58:2458,-0.038589,0.007446,-0.205612,-0.195847,0.720276,9.726166
2019-01-28 22:24:58:2458,-0.038589,0.007446,-0.205612,-0.084579,1.125839,8.883896
2019-01-28 22:24:58:2458,-0.038589,0.007446,-0.205612,-0.270020,1.590057,7.573822
2019-01-28 22:24:58:2458,-0.038589,0.007446,-0.205612,-0.655273,1.593643,7.724579
2019-01-28 22:24:58:2458,-0.038589,0.007446,-0.205612,-0.925659,0.947586,9.872131
2019-01-28 22:24:58:2458,-0.038589,0.007446,-0.205612,-0.564346,0.458252,11.728958
2019-01-28 22:24:58:2458,-0.038589,0.007446,-0.205612,0.103256,0.172318,12.744720
2019-01-28 22:24:58:2458,-0.038589,0.007446,-0.205612,0.398773,0.212982,12.414505
2019-01-28 22:24:58:2458,-0.038589,0.007446,-0.205612,-0.213791,0.563538,11.489685
2019-01-28 22:24:58:2458,-0.108231,-0.058167,-0.033112,-0.213791,0.563538,11.489685
2019-01-28 22:24:58:2458,-0.108231,-0.058167,-0.033112,-0.619385,1.149780,10.533752
2019-01-28 22:24:58:2458,-0.108231,-0.058167,-0.033112,-0.876602,1.877197,9.132751
2019-01-28 22:24:58:2458,-0.108231,-0.058167,-0.033112,-0.917282,2.396439,7.543915
2019-01-28 22:24:58:2458,-0.108231,-0.058167,-0.033112,-0.518875,2.115280,6.731552
2019-01-28 22:24:58:2458,-0.108231,-0.058167,-0.033112,-0.229340,1.318466,7.737732
2019-01-28 22:24:58:2458,-0.108231,-0.058167,-0.033112,0.023102,0.057449,10.283707
2019-01-28 22:24:58:2458,-0.108231,-0.058167,-0.033112,0.701477,-1.301682,12.395370
2019-01-28 22:24:58:2458,-0.108231,-0.058167,-0.033112,0.957504,-1.716827,13.348907
2019-01-28 22:24:58:2458,-0.108231,-0.058167,-0.033112,0.560303,-0.802765,12.120193
2019-01-28 22:24:58:2458,-0.108231,-0.058167,-0.033112,-0.438721,0.805206,9.936737
2019-01-28 22:24:58:2458,0.113388,-0.080154,0.046844,-0.438721,0.805206,9.936737
2019-01-28 22:24:58:2458,0.113388,-0.080154,0.046844,-1.666229,2.459854,7.999756
2019-01-28 22:24:58:2458,0.113388,-0.080154,0.046844,-1.680603,3.382278,6.520996
2019-01-28 22:24:58:2458,0.113388,-0.080154,0.046844,-0.704330,2.703918,6.873932
2019-01-28 22:24:58:2458,0.113388,-0.080154,0.046844,-0.024750,1.380676,9.157883
2019-01-28 22:24:58:2458,0.113388,-0.080154,0.046844,-0.098938,0.513290,11.693069
2019-01-28 22:24:58:2458,0.113388,-0.080154,0.046844,0.125992,0.262039,12.223083
2019-01-28 22:24:58:2458,0.113388,-0.080154,0.046844,1.035263,-0.017929,11.092484
2019-01-28 22:24:58:2458,0.113388,-0.080154,0.046844,1.171661,-0.315842,11.108032
2019-01-28 22:24:58:2458,0.113388,-0.080154,0.046844,0.405960,0.189056,11.575821
2019-01-28 22:24:58:2458,0.056213,-0.066284,0.147079,0.405960,0.189056,11.575821
2019-01-28 22:24:58:2458,0.056213,-0.066284,0.147079,0.001572,1.048080,10.219101
2019-01-28 22:24:58:2458,0.056213,-0.066284,0.147079,0.064972,1.308899,8.448410
2019-01-28 22:24:58:2458,0.056213,-0.066284,0.147079,-0.005615,0.999039,7.932755
2019-01-28 22:24:58:2458,0.056213,-0.066284,0.147079,-0.153976,0.680786,8.729568
2019-01-28 22:24:58:2458,0.056213,-0.066284,0.147079,-0.276001,0.801620,9.250000
2019-01-28 22:24:58:2458,0.056213,-0.066284,0.147079,-0.150375,1.299332,8.164856
2019-01-28 22:24:58:2458,0.056213,-0.066284,0.147079,-0.173111,1.479996,7.253189
2019-01-28 22:24:58:2458,0.056213,-0.066284,0.147079,-0.258057,1.165329,8.319199
2019-01-28 22:24:58:2458,0.056213,-0.066284,0.147079,-0.462646,0.886566,10.545715
2019-01-28 22:24:58:2458,0.056213,-0.066284,0.147079,-0.164734,1.125854,11.360474
2019-01-28 22:24:58:2458,-0.067978,0.087585,-0.044418,-0.164734,1.125854,11.360474
2019-01-28 22:24:58:2458,-0.067978,0.087585,-0.044418,0.152313,1.353165,10.317200
2019-01-28 22:24:58:2458,-0.067978,0.087585,-0.044418,0.146332,1.100723,9.940323
2019-01-28 22:24:58:2458,-0.067978,0.087585,-0.044418,-0.197037,0.769318,11.549500
2019-01-28 22:24:58:2458,-0.067978,0.087585,-0.044418,-0.325058,0.726242,12.981613
2019-01-28 22:24:58:2458,-0.067978,0.087585,-0.044418,0.029083,0.874603,11.927567
2019-01-28 22:24:58:2458,-0.067978,0.087585,-0.044418,0.373657,1.109100,9.740524
2019-01-28 22:24:58:2458,-0.067978,0.087585,-0.044418,-0.005615,1.253860,8.631454
2019-01-28 22:24:58:2458,-0.067978,0.087585,-0.044418,-0.498535,1.360352,8.931763
2019-01-28 22:24:58:2458,-0.067978,0.087585,-0.044418,-0.457855,1.190460,9.833847
2019-01-28 22:24:58:2458,0.083221,0.035110,-0.046371,-0.457855,1.190460,9.833847
2019-01-28 22:24:58:2458,0.083221,0.035110,-0.046371,-0.112091,0.701126,10.634247
2019-01-28 22:24:59:2459,0.083221,0.035110,-0.046371,0.096085,0.367325,11.510025
2019-01-28 22:24:59:2459,0.083221,0.035110,-0.046371,0.026688,0.550385,11.283905
2019-01-28 22:24:59:2459,0.083221,0.035110,-0.046371,-0.112091,1.133026,10.042023
2019-01-28 22:24:59:2459,0.083221,0.035110,-0.046371,-0.423172,1.658249,8.617096
2019-01-28 22:24:59:2459,0.083221,0.035110,-0.046371,-0.768936,1.574509,8.078720
2019-01-28 22:24:59:2459,0.083221,0.035110,-0.046371,-0.858658,1.125854,8.711609
2019-01-28 22:24:59:2459,0.083221,0.035110,-0.046371,-0.669632,0.530045,10.065948
2019-01-28 22:24:59:2459,0.083221,0.035110,-0.046371,-0.432739,0.318268,10.826874
2019-01-28 22:24:59:2459,0.052246,0.023376,-0.050095,-0.432739,0.318268,10.826874
2019-01-28 22:24:59:2459,0.052246,0.023376,-0.050095,-0.236526,0.574310,10.641418
2019-01-28 22:24:59:2459,0.052246,0.023376,-0.050095,-0.173111,0.752563,10.403351
2019-01-28 22:24:59:2459,0.052246,0.023376,-0.050095,-0.327454,0.946396,10.878326
2019-01-28 22:24:59:2459,0.052246,0.023376,-0.050095,-0.524857,1.501526,10.458374
2019-01-28 22:24:59:2459,0.052246,0.023376,-0.050095,-0.607407,2.030334,9.100449
2019-01-28 22:24:59:2459,0.052246,0.023376,-0.050095,-0.216187,1.920273,8.333557
2019-01-28 22:24:59:2459,0.052246,0.023376,-0.050095,-0.314285,1.025360,9.436646
2019-01-28 22:24:59:2459,0.052246,0.023376,-0.050095,-0.241318,0.168716,11.293472
2019-01-28 22:24:59:2459,0.052246,0.023376,-0.050095,-0.023560,-0.269165,11.944321
2019-01-28 22:24:59:2459,0.052246,0.023376,-0.050095,0.340149,-0.488113,11.493271
2019-01-28 22:24:59:2459,0.049988,-0.074463,0.048126,0.340149,-0.488113,11.493271
2019-01-28 22:24:59:2459,0.049988,-0.074463,0.048126,0.018326,-0.068176,11.044617
2019-01-28 22:24:59:2459,0.049988,-0.074463,0.048126,-0.608612,0.934418,10.000153
2019-01-28 22:24:59:2459,0.049988,-0.074463,0.048126,-1.056061,2.157150,8.163651
2019-01-28 22:24:59:2459,0.049988,-0.074463,0.048126,-1.142212,2.829544,6.751892
2019-01-28 22:24:59:2459,0.049988,-0.074463,0.048126,-0.789261,2.413193,7.399155
2019-01-28 22:24:59:2459,0.049988,-0.074463,0.048126,-0.508102,1.326843,9.587387
2019-01-28 22:24:59:2459,0.049988,-0.074463,0.048126,-0.130035,0.475006,11.804337
2019-01-28 22:24:59:2459,0.049988,-0.074463,0.048126,0.347336,-0.068176,12.359482
2019-01-28 22:24:59:2459,0.049988,-0.074463,0.048126,0.626099,-0.655609,12.040039
2019-01-28 22:24:59:2459,0.084869,-0.049301,0.149841,0.626099,-0.655609,12.040039
2019-01-28 22:24:59:2459,0.084869,-0.049301,0.149841,0.476547,-0.595795,11.782806
2019-01-28 22:24:59:2459,0.084869,-0.049301,0.149841,-0.060654,0.312286,10.243027
2019-01-28 22:24:59:2459,0.084869,-0.049301,0.149841,-0.657654,1.679794,8.078720
2019-01-28 22:24:59:2459,0.084869,-0.049301,0.149841,-1.036926,2.420364,6.372635
2019-01-28 22:24:59:2459,0.084869,-0.049301,0.149841,-0.966339,2.164337,6.549698
2019-01-28 22:24:59:2459,0.084869,-0.049301,0.149841,-0.829941,1.496735,8.618301
2019-01-28 22:24:59:2459,0.084869,-0.049301,0.149841,-0.258057,1.271805,10.075531
2019-01-28 22:24:59:2459,0.084869,-0.049301,0.149841,0.332977,1.068420,9.908035
2019-01-28 22:24:59:2459,0.084869,-0.049301,0.149841,0.938354,0.204620,10.128174
2019-01-28 22:24:59:2459,0.084869,-0.049301,0.149841,1.006561,-0.165085,11.377228
2019-01-28 22:24:59:2459,0.025131,-0.017548,0.147446,1.006561,-0.165085,11.377228
2019-01-28 22:24:59:2459,0.025131,-0.017548,0.147446,0.468170,0.742996,11.001541
2019-01-28 22:24:59:2459,0.025131,-0.017548,0.147446,-0.015182,1.989655,8.440033
2019-01-28 22:24:59:2459,0.025131,-0.017548,0.147446,-0.621765,2.128448,7.117996
2019-01-28 22:24:59:2459,0.025131,-0.017548,0.147446,-0.768936,1.567322,8.280914
2019-01-28 22:24:59:2459,0.025131,-0.017548,0.147446,-0.314285,1.197632,9.629272
2019-01-28 22:24:59:2459,0.025131,-0.017548,0.147446,-0.080994,1.086365,9.739334
2019-01-28 22:24:59:2459,0.025131,-0.017548,0.147446,0.053024,1.160553,9.076523
2019-01-28 22:24:59:2459,0.025131,-0.017548,0.147446,-0.089371,1.180893,8.978424
2019-01-28 22:24:59:2459,0.025131,-0.017548,0.147446,-0.271225,1.235916,9.785995
2019-01-28 22:24:59:2459,-0.088425,0.064301,-0.040314,-0.271225,1.235916,9.785995
2019-01-28 22:24:59:2459,-0.088425,0.064301,-0.040314,-0.080994,1.373505,10.277725
2019-01-28 22:24:59:2459,-0.088425,0.064301,-0.040314,0.096085,1.337616,10.249008
2019-01-28 22:24:59:2459,-0.088425,0.064301,-0.040314,0.030289,1.228745,9.898453
2019-01-28 22:24:59:2459,-0.088425,0.064301,-0.040314,-0.258057,1.470413,9.571838
2019-01-28 22:24:59:2459,-0.088425,0.064301,-0.040314,-0.538025,1.715683,9.039429
2019-01-28 22:24:59:2459,-0.088425,0.064301,-0.040314,-0.174316,1.337616,8.853989
2019-01-28 22:24:59:2459,-0.088425,0.064301,-0.040314,0.237259,0.195038,10.046814
2019-01-28 22:24:59:2459,-0.088425,0.064301,-0.040314,0.439453,-0.230881,11.212112
2019-01-28 22:24:59:2459,-0.088425,0.064301,-0.040314,0.449020,0.126846,10.150894
2019-01-28 22:24:59:2459,-0.088425,0.064301,-0.040314,-0.097733,0.912888,8.431656
2019-01-28 22:25:00:250,-0.229599,0.036331,-0.018875,-0.097733,0.912888,8.431656
2019-01-28 22:25:00:250,-0.229599,0.036331,-0.018875,-0.829941,1.633133,7.539124
2019-01-28 22:25:00:250,-0.229599,0.036331,-0.018875,-1.200836,2.203812,7.487686
2019-01-28 22:25:00:250,-0.229599,0.036331,-0.018875,-1.162552,2.295944,8.091873
2019-01-28 22:25:00:250,-0.229599,0.036331,-0.018875,-0.552383,1.532639,9.393570
2019-01-28 22:25:00:250,-0.229599,0.036331,-0.018875,0.030273,0.112488,11.697861
2019-01-28 22:25:00:250,-0.229599,0.036331,-0.018875,0.443039,-0.728592,14.224670
2019-01-28 22:25:00:250,-0.229599,0.036331,-0.018875,0.504059,-0.184219,14.076324
2019-01-28 22:25:00:250,-0.229599,0.036331,-0.018875,0.030289,1.064835,11.161865
2019-01-28 22:25:00:250,-0.229599,0.036331,-0.018875,-0.262848,1.745590,8.349106
2019-01-28 22:25:00:250,0.162567,0.067245,-0.102371,-0.262848,1.745590,8.349106
2019-01-28 22:25:00:250,0.162567,0.067245,-0.102371,-0.097748,1.798233,6.919388
2019-01-28 22:25:00:250,0.162567,0.067245,-0.102371,-0.109711,1.293350,7.267548
2019-01-28 22:25:00:250,0.162567,0.067245,-0.102371,0.306656,0.122055,8.565659
2019-01-28 22:25:00:250,0.162567,0.067245,-0.102371,0.426285,-1.073166,10.582794
2019-01-28 22:25:00:250,0.162567,0.067245,-0.102371,0.402359,-1.021713,12.178818
2019-01-28 22:25:00:250,0.162567,0.067245,-0.102371,-0.039124,0.135223,11.246811
2019-01-28 22:25:00:250,0.162567,0.067245,-0.102371,-0.752182,1.600830,9.026276
2019-01-28 22:25:00:250,0.162567,0.067245,-0.102371,-1.084778,2.389267,7.448196
2019-01-28 22:25:00:250,0.162567,0.067245,-0.102371,-0.758163,2.085373,7.578613
2019-01-28 22:25:00:250,0.014923,-0.050354,0.026810,-0.758163,2.085373,7.578613
2019-01-28 22:25:00:250,0.014923,-0.050354,0.026810,-0.739014,1.032532,8.765457
2019-01-28 22:25:00:250,0.014923,-0.050354,0.026810,-0.553574,0.089767,10.680908
2019-01-28 22:25:00:250,0.014923,-0.050354,0.026810,-0.248489,-0.221313,11.111618
2019-01-28 22:25:00:250,0.014923,-0.050354,0.026810,-0.027145,0.019165,9.655579
2019-01-28 22:25:00:250,0.014923,-0.050354,0.026810,-0.181488,0.726257,8.423279
2019-01-28 22:25:00:250,0.014923,-0.050354,0.026810,-0.459061,1.476395,7.896866
2019-01-28 22:25:00:250,0.014923,-0.050354,0.026810,-0.382492,1.826950,8.091873
2019-01-28 22:25:00:250,0.014923,-0.050354,0.026810,0.104462,1.489563,8.961670
2019-01-28 22:25:00:250,0.014923,-0.050354,0.026810,0.236069,1.220367,9.986984
2019-01-28 22:25:00:250,0.014923,-0.050354,0.026810,-0.207809,1.329239,11.257584
2019-01-28 22:25:00:250,0.045349,-0.073929,0.016678,-0.207809,1.329239,11.257584
2019-01-28 22:25:00:250,0.045349,-0.073929,0.016678,-0.472214,1.685776,11.091278
2019-01-28 22:25:00:250,0.045349,-0.073929,0.016678,-0.532043,2.048279,9.880508
2019-01-28 22:25:00:250,0.045349,-0.073929,0.016678,-0.267624,1.616379,8.907837
2019-01-28 22:25:00:250,0.045349,-0.073929,0.016678,0.074554,0.800430,8.340729
2019-01-28 22:25:00:250,0.045349,-0.073929,0.016678,0.411942,0.672409,8.785797
2019-01-28 22:25:00:250,0.045349,-0.073929,0.016678,-0.500931,1.399826,9.800354
2019-01-28 22:25:00:250,0.045349,-0.073929,0.016678,-0.913696,2.041107,8.895859
2019-01-28 22:25:00:250,0.045349,-0.073929,0.016678,-0.466232,2.011200,8.085892
2019-01-28 22:25:00:250,0.045349,-0.073929,0.016678,-0.167130,1.818573,8.791779
2019-01-28 22:25:00:250,-0.070969,0.009277,0.109512,-0.167130,1.818573,8.791779
2019-01-28 22:25:00:250,-0.070969,0.009277,0.109512,-0.097748,1.714478,9.582611
2019-01-28 22:25:00:250,-0.070969,0.009277,0.109512,-0.145599,1.623550,10.349503
2019-01-28 22:25:00:250,-0.070969,0.009277,0.109512,0.161880,0.964340,10.765854
2019-01-28 22:25:00:250,-0.070969,0.009277,0.109512,0.738556,0.065826,10.861557
2019-01-28 22:25:00:250,-0.070969,0.009277,0.109512,0.790009,0.256058,11.018295
2019-01-28 22:25:00:250,-0.070969,0.009277,0.109512,0.202560,1.209595,10.378220
2019-01-28 22:25:00:250,-0.070969,0.009277,0.109512,-0.243698,1.631927,8.654190
2019-01-28 22:25:00:250,-0.070969,0.009277,0.109512,-0.150375,1.426147,7.454193
2019-01-28 22:25:00:250,-0.070969,0.009277,0.109512,-0.145599,1.075607,7.858582
2019-01-28 22:25:00:250,-0.070969,0.009277,0.109512,0.176239,0.845886,8.139740
2019-01-28 22:25:01:251,-0.070969,0.009277,0.109512,0.204956,0.704712,8.411316
2019-01-28 22:25:01:251,-0.070969,0.009277,0.109512,0.096085,0.613785,8.852798
2019-01-28 22:25:01:251,-0.070969,0.009277,0.109512,-0.063049,0.696335,9.526367
2019-01-28 22:25:01:251,-0.070969,0.009277,0.109512,-0.437515,1.273010,9.951096
2019-01-28 22:25:01:251,-0.070969,0.009277,0.109512,-0.654068,1.986069,9.546707
2019-01-28 22:25:01:251,-0.070969,0.009277,0.109512,-0.417191,2.240906,8.903030
2019-01-28 22:25:01:251,-0.070969,0.009277,0.109512,-0.194656,1.953766,8.826477
2019-01-28 22:25:01:251,-0.070969,0.009277,0.109512,-0.027145,1.459656,9.900848
2019-01-28 22:25:01:251,-0.070969,0.009277,0.109512,0.562683,0.757355,11.036240
2019-01-28 22:25:01:251,-0.219696,0.056671,0.030533,0.562683,0.757355,11.036240
2019-01-28 22:25:01:251,-0.219696,0.056671,0.030533,0.775650,0.033524,11.691879
2019-01-28 22:25:01:251,-0.219696,0.056671,0.030533,0.389206,-0.008362,12.040039
2019-01-28 22:25:01:251,-0.219696,0.056671,0.030533,0.206146,0.157959,11.919189
2019-01-28 22:25:01:251,-0.219696,0.056671,0.030533,0.080521,0.350571,11.433456
2019-01-28 22:25:01:251,-0.219696,0.056671,0.030533,-0.198242,0.786072,10.733551
2019-01-28 22:25:01:251,-0.219696,0.056671,0.030533,-0.378891,1.365128,9.756073
2019-01-28 22:25:01:251,-0.219696,0.056671,0.030533,-0.444702,1.495544,8.591980
2019-01-28 22:25:01:251,-0.219696,0.056671,0.030533,-0.156372,1.246689,7.869339
2019-01-28 22:25:01:251,-0.219696,0.056671,0.030533,-0.231735,0.837524,8.227066
2019-01-28 22:25:01:251,-0.219696,0.056671,0.030533,-0.644501,0.557556,9.484497
2019-01-28 22:25:01:251,0.167694,0.134613,-0.167068,-0.644501,0.557556,9.484497
2019-01-28 22:25:01:251,0.167694,0.134613,-0.167068,-0.680389,0.934418,9.908020
2019-01-28 22:25:01:251,0.167694,0.134613,-0.167068,-0.669617,1.506302,9.525177
2019-01-28 22:25:01:251,0.167694,0.134613,-0.167068,-0.643311,1.798233,9.186600
2019-01-28 22:25:01:251,0.167694,0.134613,-0.167068,-0.715088,1.716873,9.617294
2019-01-28 22:25:01:251,0.167694,0.134613,-0.167068,-0.176697,1.409393,10.100647
2019-01-28 22:25:01:251,0.167694,0.134613,-0.167068,0.561493,0.936813,10.514603
2019-01-28 22:25:01:251,0.167694,0.134613,-0.167068,0.866577,0.533615,10.651001
2019-01-28 22:25:01:251,0.167694,0.134613,-0.167068,0.532776,0.555161,10.120987
2019-01-28 22:25:01:251,0.167694,0.134613,-0.167068,0.155899,1.057648,9.559860
2019-01-28 22:25:01:251,0.151505,0.050018,-0.036957,0.155899,1.057648,9.559860
2019-01-28 22:25:01:251,0.151505,0.050018,-0.036957,0.079330,1.283768,8.979614
2019-01-28 22:25:01:251,0.151505,0.050018,-0.036957,0.283920,1.247879,8.459167
2019-01-28 22:25:01:251,0.151505,0.050018,-0.036957,-0.096542,1.483582,8.510620
2019-01-28 22:25:01:251,0.151505,0.050018,-0.036957,-0.637329,1.966919,8.384995
2019-01-28 22:25:01:251,0.151505,0.050018,-0.036957,-0.504517,2.303116,7.758072
2019-01-28 22:25:01:251,0.151505,0.050018,-0.036957,-0.303528,1.612793,8.077515
2019-01-28 22:25:01:251,0.151505,0.050018,-0.036957,-0.380096,0.707108,10.049194
2019-01-28 22:25:01:251,0.151505,0.050018,-0.036957,-0.487778,0.446289,11.384399
2019-01-28 22:25:01:251,0.151505,0.050018,-0.036957,-0.521271,0.812393,11.062561
2019-01-28 22:25:01:251,-0.058563,0.124588,-0.219055,-0.521271,0.812393,11.062561
2019-01-28 22:25:01:251,-0.058563,0.124588,-0.219055,-0.583481,1.105515,10.101837
2019-01-28 22:25:01:251,-0.058563,0.124588,-0.219055,-0.934036,1.377090,9.753693
2019-01-28 22:25:01:251,-0.058563,0.124588,-0.219055,-1.066833,1.910690,9.466553
2019-01-28 22:25:01:251,-0.058563,0.124588,-0.219055,-1.133835,2.339020,8.962860
2019-01-28 22:25:01:251,-0.058563,0.124588,-0.219055,-0.831131,1.934631,9.056183
2019-01-28 22:25:01:251,-0.058563,0.124588,-0.219055,-0.092957,0.491745,10.160477
2019-01-28 22:25:01:251,-0.058563,0.124588,-0.219055,0.295883,-0.573059,12.513809
2019-01-28 22:25:01:251,-0.058563,0.124588,-0.219055,0.423904,-0.233276,13.218491
2019-01-28 22:25:01:251,-0.058563,0.124588,-0.219055,0.230087,0.991852,11.166656
2019-01-28 22:25:01:251,-0.058563,0.124588,-0.219055,-0.500931,2.025558,8.912613
2019-01-28 22:25:01:251,0.032639,0.119217,-0.127243,-0.500931,2.025558,8.912613
2019-01-28 22:25:01:251,0.032639,0.119217,-0.127243,-1.099136,2.489761,8.119400
2019-01-28 22:25:01:251,0.032639,0.119217,-0.127243,-0.928055,2.228943,8.059570
2019-01-28 22:25:01:251,0.032639,0.119217,-0.127243,-0.465042,1.446487,8.591965
2019-01-28 22:25:01:251,0.032639,0.119217,-0.127243,-0.194656,0.492950,9.534744
2019-01-28 22:25:01:251,0.032639,0.119217,-0.127243,-0.356171,0.311096,10.070740
2019-01-28 22:25:01:251,0.032639,0.119217,-0.127243,-1.039322,0.839905,9.797958
2019-01-28 22:25:01:251,0.032639,0.119217,-0.127243,-1.038116,0.991852,9.417496
2019-01-28 22:25:01:251,0.032639,0.119217,-0.127243,-0.640915,0.427155,9.902039
2019-01-28 22:25:01:251,0.032639,0.119217,-0.127243,-0.752182,0.458252,10.491867
2019-01-28 22:25:02:252,-0.057770,0.067780,-0.222107,-0.752182,0.458252,10.491867
2019-01-28 22:25:02:252,-0.057770,0.067780,-0.222107,-1.008209,1.392654,9.884094
2019-01-28 22:25:02:252,-0.057770,0.067780,-0.222107,-1.499939,2.292358,8.430466
2019-01-28 22:25:02:252,-0.057770,0.067780,-0.222107,-1.199631,2.109299,7.747314
2019-01-28 22:25:02:252,-0.057770,0.067780,-0.222107,-0.859848,1.399826,9.197357
2019-01-28 22:25:02:252,-0.057770,0.067780,-0.222107,-0.731842,1.009796,11.100845
2019-01-28 22:25:02:252,-0.057770,0.067780,-0.222107,-0.340607,0.598236,11.399948
2019-01-28 22:25:02:252,-0.057770,0.067780,-0.222107,-0.296341,0.138809,11.514801
2019-01-28 22:25:02:252,-0.057770,0.067780,-0.222107,-0.496155,0.412781,11.203735
2019-01-28 22:25:02:252,-0.057770,0.067780,-0.222107,-0.722260,1.093552,9.843414
2019-01-28 22:25:02:252,-0.057770,0.067780,-0.222107,-1.080002,1.750381,8.362259
2019-01-28 22:25:02:252,0.031235,-0.087601,-0.129379,-1.080002,1.750381,8.362259
2019-01-28 22:25:02:252,0.031235,-0.087601,-0.129379,-1.300140,2.187057,7.547501
2019-01-28 22:25:02:252,0.031235,-0.087601,-0.129379,-1.085983,2.068619,7.206528
2019-01-28 22:25:02:252,0.031235,-0.087601,-0.129379,-0.789261,1.276596,8.122986
2019-01-28 22:25:02:252,0.031235,-0.087601,-0.129379,-0.323868,0.001221,10.217896
2019-01-28 22:25:02:252,0.031235,-0.087601,-0.129379,-0.119278,-0.817123,12.107040
2019-01-28 22:25:02:252,0.031235,-0.087601,-0.129379,-0.161148,-0.250031,11.748108
2019-01-28 22:25:02:252,0.031235,-0.087601,-0.129379,-1.065643,1.033722,9.707031
2019-01-28 22:25:02:252,0.031235,-0.087601,-0.129379,-1.540619,1.986069,7.789185
2019-01-28 22:25:02:252,0.031235,-0.087601,-0.129379,-2.122070,2.427551,7.747314
2019-01-28 22:25:02:252,-0.011887,-0.151810,-0.013809,-2.122070,2.427551,7.747314
2019-01-28 22:25:02:252,-0.011887,-0.151810,-0.013809,-1.809814,2.342590,8.556091
2019-01-28 22:25:02:252,-0.011887,-0.151810,-0.013809,-1.013000,1.600830,9.261963
2019-01-28 22:25:02:252,-0.011887,-0.151810,-0.013809,-0.727051,0.800430,10.688095
2019-01-28 22:25:02:252,-0.011887,-0.151810,-0.013809,-0.405228,0.545593,11.677521
2019-01-28 22:25:02:252,-0.011887,-0.151810,-0.013809,-0.192261,0.714279,11.118790
2019-01-28 22:25:02:252,-0.011887,-0.151810,-0.013809,-0.390869,0.696335,10.154495
2019-01-28 22:25:02:252,-0.011887,-0.151810,-0.013809,-0.460251,0.780090,9.605331
