Time,Gx,Gy,Gz,Ax,Ay,Az
2019-01-28 22:41:01:411,-0.141571,-0.094025,-0.122726,0.000000,0.000000,0.000000
2019-01-28 22:41:01:411,-0.141571,-0.094025,-0.122726,-0.393250,0.981079,9.551498
2019-01-28 22:41:01:411,-0.141571,-0.094025,-0.122726,-0.705521,0.971512,9.771637
2019-01-28 22:41:01:411,-0.141571,-0.094025,-0.122726,-0.410004,1.067230,9.506027
2019-01-28 22:41:01:411,-0.141571,-0.094025,-0.122726,0.300674,1.383087,8.730759
2019-01-28 22:41:01:411,-0.141571,-0.094025,-0.122726,0.600967,1.013382,9.166245
2019-01-28 22:41:01:411,-0.141571,-0.094025,-0.122726,0.419113,0.909302,9.135147
2019-01-28 22:41:01:411,-0.141571,-0.094025,-0.122726,0.169067,1.148590,8.751099
2019-01-28 22:41:01:411,-0.141571,-0.094025,-0.122726,-0.262848,0.987061,9.872131
2019-01-28 22:41:01:411,-0.141571,-0.094025,-0.122726,-1.066833,0.735825,10.587585
2019-01-28 22:41:01:411,-0.141571,-0.094025,-0.122726,-1.280991,0.140015,10.034851
2019-01-28 22:41:01:411,-0.141571,-0.094025,-0.122726,-0.794052,-0.191406,9.419891
2019-01-28 22:41:01:411,-0.141571,-0.094025,-0.122726,-0.290359,-0.534775,9.352890
2019-01-28 22:41:01:411,-0.141571,-0.094025,-0.122726,-0.037918,-1.134171,9.817093
2019-01-28 22:41:01:411,-0.141571,-0.094025,-0.122726,-0.214981,-1.103073,10.424881
2019-01-28 22:41:01:411,-0.141571,-0.094025,-0.122726,-0.752182,-0.677155,10.892670
2019-01-28 22:41:01:411,-0.141571,-0.094025,-0.122726,-1.489166,0.058655,11.399948
2019-01-28 22:41:01:411,-0.141571,-0.094025,-0.122726,-2.441513,0.570709,11.687088
2019-01-28 22:41:01:411,-0.141571,-0.094025,-0.122726,-2.827942,0.262039,11.553085
2019-01-28 22:41:01:411,-0.141571,-0.094025,-0.122726,-1.685379,-0.275162,9.258377
2019-01-28 22:41:01:411,-0.141571,-0.094025,-0.122726,0.110443,-0.739365,7.718597
2019-01-28 22:41:01:411,-0.141571,-0.094025,-0.122726,1.184814,-1.079147,6.968445
2019-01-28 22:41:01:411,-0.141571,-0.094025,-0.122726,1.044846,-1.328003,6.940933
2019-01-28 22:41:01:411,-0.141571,-0.094025,-0.122726,1.499481,-1.227509,7.670731
2019-01-28 22:41:01:411,-0.141571,-0.094025,-0.122726,-0.417175,-1.916626,6.646606
2019-01-28 22:41:01:411,-0.141571,-0.094025,-0.122726,-1.146988,-0.573059,6.662170
2019-01-28 22:41:01:411,-0.141571,-0.094025,-0.122726,-0.875412,-0.062195,7.881302
2019-01-28 22:41:01:411,-0.141571,-0.094025,-0.122726,-0.159958,-0.089706,9.930756
2019-01-28 22:41:01:411,-0.141571,-0.094025,-0.122726,0.763687,-0.246445,11.322189
2019-01-28 22:41:01:411,-0.141571,-0.094025,-0.122726,-0.366928,-1.369873,13.159882
2019-01-28 22:41:01:411,-0.141571,-0.094025,-0.122726,-0.340622,-1.105469,14.918594
2019-01-28 22:41:01:411,-0.141571,-0.094025,-0.122726,-0.528458,-0.589813,14.429260
2019-01-28 22:41:01:411,-0.141571,-0.094025,-0.122726,-0.085785,-0.061005,12.280502
2019-01-28 22:41:01:411,-0.141571,-0.094025,-0.122726,-0.192261,0.647293,9.519196
2019-01-28 22:41:01:411,-0.141571,-0.094025,-0.122726,-1.665039,1.235916,8.569244
2019-01-28 22:41:01:411,-0.141571,-0.094025,-0.122726,-2.605423,1.381882,9.360077
2019-01-28 22:41:01:411,-0.141571,-0.094025,-0.122726,-1.722473,1.119873,9.813507
2019-01-28 22:41:01:411,-0.141571,-0.094025,-0.122726,-0.853882,0.339813,9.803940
2019-01-28 22:41:01:411,-0.141571,-0.094025,-0.122726,0.006348,0.118469,9.752502
2019-01-28 22:41:01:411,-0.141571,-0.094025,-0.122726,0.634460,-0.096893,10.252594
2019-01-28 22:41:01:411,-0.141571,-0.094025,-0.122726,0.736176,-0.229691,11.397568
2019-01-28 22:41:01:411,-0.141571,-0.094025,-0.122726,0.147537,0.099335,10.752686
2019-01-28 22:41:01:411,-0.141571,-0.094025,-0.122726,-0.482986,0.266830,10.418900
2019-01-28 22:41:01:411,-0.141571,-0.094025,-0.122726,-0.613388,0.092148,10.265762
2019-01-28 22:41:01:411,-0.141571,-0.094025,-0.122726,-0.390854,0.323059,9.579010
2019-01-28 22:41:01:411,-0.141571,-0.094025,-0.122726,-0.179092,0.593445,8.538132
2019-01-28 22:41:01:411,-0.141571,-0.094025,-0.122726,-0.414795,0.587463,8.222290
2019-01-28 22:41:01:411,-0.141571,-0.094025,-0.122726,-0.771317,0.373306,9.253586
2019-01-28 22:41:01:411,-0.141571,-0.094025,-0.122726,-0.798843,0.169922,10.788589
2019-01-28 22:41:01:411,-0.141571,-0.094025,-0.122726,-0.828751,0.047882,10.269348
2019-01-28 22:41:01:411,-0.141571,-0.094025,-0.122726,-0.627747,-0.124405,8.800140
2019-01-28 22:41:01:411,-0.141571,-0.094025,-0.122726,-0.328644,-0.104065,8.390976
2019-01-28 22:41:01:411,-0.141571,-0.094025,-0.122726,-1.157761,0.040710,9.246414
2019-01-28 22:41:01:411,-0.141571,-0.094025,-0.122726,-2.089767,1.082779,10.579224
2019-01-28 22:41:01:411,-0.141571,-0.094025,-0.122726,-2.826752,1.675003,8.918594
2019-01-28 22:41:01:411,-0.141571,-0.094025,-0.122726,-1.709305,1.856857,8.504639
2019-01-28 22:41:01:411,-0.141571,-0.094025,-0.122726,-0.901733,1.183273,8.895859
2019-01-28 22:41:01:411,-0.141571,-0.094025,-0.122726,-0.688766,0.979889,9.295456
2019-01-28 22:41:01:411,-0.141571,-0.094025,-0.122726,-0.012787,0.715485,9.673538
2019-01-28 22:41:01:411,-0.141571,-0.094025,-0.122726,0.074554,0.725052,9.588577
2019-01-28 22:41:01:411,-0.141571,-0.094025,-0.122726,-0.273621,0.915283,10.063553
2019-01-28 22:41:01:411,-0.141571,-0.094025,-0.122726,-0.272415,0.869812,10.371048
2019-01-28 22:41:01:411,-0.141571,-0.094025,-0.122726,-0.547592,0.948776,8.831253
2019-01-28 22:41:01:411,-0.141571,-0.094025,-0.122726,-0.259262,0.521667,10.156876
2019-01-28 22:41:01:411,-0.141571,-0.094025,-0.122726,-0.331039,0.647293,10.493073
2019-01-28 22:41:01:411,-0.141571,-0.094025,-0.122726,-0.266434,0.649673,9.946320
2019-01-28 22:41:01:411,-0.141571,-0.094025,-0.122726,0.082932,0.494141,9.187790
2019-01-28 22:41:01:411,-0.141571,-0.094025,-0.122726,0.062576,0.373306,9.071732
2019-01-28 22:41:01:411,-0.141571,-0.094025,-0.122726,-0.372910,0.486969,9.504837
2019-01-28 22:41:01:411,-0.141571,-0.094025,-0.122726,-0.675613,0.537216,9.948700
2019-01-28 22:41:01:411,-0.141571,-0.094025,-0.122726,-0.646896,0.565933,10.039642
2019-01-28 22:41:01:411,-0.141571,-0.094025,-0.122726,-0.365738,0.439102,10.071945
2019-01-28 22:41:01:411,-0.141571,-0.094025,-0.122726,-0.200638,0.402023,9.738144
2019-01-28 22:41:01:411,-0.141571,-0.094025,-0.122726,-0.493759,0.361343,9.284698
2019-01-28 22:41:01:411,-0.141571,-0.094025,-0.122726,-0.739014,0.335022,8.928162
2019-01-28 22:41:01:411,-0.141571,-0.094025,-0.122726,-0.945999,0.392456,8.674530
2019-01-28 22:41:01:411,-0.141571,-0.094025,-0.122726,-1.114700,0.460648,8.723587
2019-01-28 22:41:02:412,-0.141571,-0.094025,-0.122726,-1.012985,0.488159,8.830063
2019-01-28 22:41:02:412,-0.141571,-0.094025,-0.122726,-0.874207,0.515671,8.947311
2019-01-28 22:41:02:412,-0.141571,-0.094025,-0.122726,-0.740219,0.625748,9.007126
2019-01-28 22:41:02:412,-0.141571,-0.094025,-0.122726,-0.687576,0.464233,9.470139
2019-01-28 22:41:02:412,-0.141571,-0.094025,-0.122726,-0.942413,0.390060,10.143723
2019-01-28 22:41:02:412,-0.141571,-0.094025,-0.122726,-1.174515,0.254868,11.042221
2019-01-28 22:41:02:412,-0.141571,-0.094025,-0.122726,-0.980698,0.059845,12.177612
2019-01-28 22:41:02:412,-0.141571,-0.094025,-0.122726,-0.650482,0.065826,12.672928
2019-01-28 22:41:02:412,-0.141571,-0.094025,-0.122726,-0.600235,0.262039,11.995773
2019-01-28 22:41:02:412,-0.141571,-0.094025,-0.122726,-0.433929,0.376892,10.806534
2019-01-28 22:41:02:412,-0.141571,-0.094025,-0.122726,-0.286774,0.495331,9.811127
2019-01-28 22:41:02:412,-0.141571,-0.094025,-0.122726,-0.284378,0.562347,9.258377
2019-01-28 22:41:02:412,-0.141571,-0.094025,-0.122726,-0.392059,0.649689,8.680511
2019-01-28 22:41:02:412,-0.141571,-0.094025,-0.122726,-0.358566,0.573105,8.398163
2019-01-28 22:41:02:412,-0.141571,-0.094025,-0.122726,-0.407608,0.416382,8.612320
2019-01-28 22:41:02:412,-0.141571,-0.094025,-0.122726,-0.448288,0.291962,9.028671
2019-01-28 22:41:02:412,-0.141571,-0.094025,-0.122726,-0.451874,0.172318,9.516800
2019-01-28 22:41:02:412,-0.141571,-0.094025,-0.122726,-0.390854,0.083771,9.940338
2019-01-28 22:41:02:412,-0.141571,-0.094025,-0.122726,-0.372910,0.099335,10.036041
2019-01-28 22:41:02:412,-0.141571,-0.094025,-0.122726,-0.473419,0.124451,9.984604
2019-01-28 22:41:02:412,-0.141571,-0.094025,-0.122726,-0.599045,0.197433,9.833847
2019-01-28 22:41:02:412,-0.141571,-0.094025,-0.122726,-0.678009,0.268021,9.610123
2019-01-28 22:41:02:412,-0.141571,-0.094025,-0.122726,-0.735428,0.252472,9.358871
2019-01-28 22:41:02:412,-0.141571,-0.094025,-0.122726,-0.663635,0.256058,9.588577
2019-01-28 22:41:02:412,-0.141571,-0.094025,-0.122726,-0.815582,0.367325,9.796753
2019-01-28 22:41:02:412,-0.141571,-0.094025,-0.122726,-0.904129,0.397232,9.908035
2019-01-28 22:41:02:412,-0.141571,-0.094025,-0.122726,-0.789276,0.411591,9.797958
2019-01-28 22:41:02:412,-0.141571,-0.094025,-0.122726,-0.712692,0.321869,9.784790
2019-01-28 22:41:02:412,-0.141571,-0.094025,-0.122726,-0.527252,0.355362,9.760864
2019-01-28 22:41:02:412,-0.141571,-0.094025,-0.122726,-0.461456,0.283585,9.718994
2019-01-28 22:41:02:412,-0.141571,-0.094025,-0.122726,-0.348984,0.201019,9.672333
2019-01-28 22:41:02:412,-0.141571,-0.094025,-0.122726,-0.284378,0.138809,9.667542
2019-01-28 22:41:02:412,-0.141571,-0.094025,-0.122726,-0.331039,0.207001,9.663956
2019-01-28 22:41:02:412,-0.141571,-0.094025,-0.122726,-0.662445,0.250076,9.753693
2019-01-28 22:41:02:412,-0.141571,-0.094025,-0.122726,-0.814392,0.378098,9.776428
2019-01-28 22:41:02:412,-0.141571,-0.094025,-0.122726,-0.790466,0.380478,9.819489
2019-01-28 22:41:02:412,-0.141571,-0.094025,-0.122726,-0.704330,0.490555,9.650803
2019-01-28 22:41:02:412,-0.141571,-0.094025,-0.122726,-0.792862,0.637711,9.333740
2019-01-28 22:41:02:412,-0.141571,-0.094025,-0.122726,-0.929245,0.595840,9.287094
2019-01-28 22:41:02:412,-0.141571,-0.094025,-0.122726,-0.565536,0.312286,9.740524
2019-01-28 22:41:02:412,-0.141571,-0.094025,-0.122726,-0.191055,0.098129,10.075531
2019-01-28 22:41:02:412,-0.141571,-0.094025,-0.122726,-0.067825,-0.084930,10.307632
2019-01-28 22:41:02:412,-0.141571,-0.094025,-0.122726,-0.113297,-0.227295,10.709625
2019-01-28 22:41:02:412,-0.141571,-0.094025,-0.122726,-0.193451,-0.028702,10.637833
2019-01-28 22:41:02:412,-0.141571,-0.094025,-0.122726,-0.307114,0.100525,10.046814
2019-01-28 22:41:02:412,-0.141571,-0.094025,-0.122726,-0.240112,0.089767,9.574234
2019-01-28 22:41:02:412,-0.141571,-0.094025,-0.122726,-0.357361,0.019165,9.322983
2019-01-28 22:41:02:412,-0.141571,-0.094025,-0.122726,-0.265244,0.031128,9.373230
2019-01-28 22:41:02:412,-0.141571,-0.094025,-0.122726,-0.238922,0.093353,9.255981
2019-01-28 22:41:02:412,-0.141571,-0.094025,-0.122726,-0.167130,0.175903,9.016693
2019-01-28 22:41:02:412,-0.141571,-0.094025,-0.122726,-0.181488,0.178299,8.965256
2019-01-28 22:41:02:412,-0.141571,-0.094025,-0.122726,-0.127655,0.183075,9.233246
2019-01-28 22:41:02:412,-0.141571,-0.094025,-0.122726,-0.145599,0.149582,9.528763
2019-01-28 22:41:02:412,-0.141571,-0.094025,-0.122726,-0.236526,-0.010742,9.681900
2019-01-28 22:41:02:412,-0.141571,-0.094025,-0.122726,-0.425552,-0.064590,9.747711
2019-01-28 22:41:02:412,-0.141571,-0.094025,-0.122726,-0.566742,-0.074158,10.064758
2019-01-28 22:41:02:412,-0.141571,-0.094025,-0.122726,-0.801239,-0.099289,10.465561
2019-01-28 22:41:02:412,-0.141571,-0.094025,-0.122726,-0.834732,-0.128006,10.665359
2019-01-28 22:41:02:412,-0.141571,-0.094025,-0.122726,-0.760559,-0.102875,10.588791
2019-01-28 22:41:02:412,-0.141571,-0.094025,-0.122726,-0.666046,-0.045441,10.190384
2019-01-28 22:41:02:412,-0.141571,-0.094025,-0.122726,-0.611008,0.065826,9.753693
2019-01-28 22:41:02:412,-0.141571,-0.094025,-0.122726,-0.487778,0.100525,9.567047
2019-01-28 22:41:02:412,-0.141571,-0.094025,-0.122726,-0.594254,0.171112,9.580215
2019-01-28 22:41:02:412,-0.141571,-0.094025,-0.122726,-0.565536,0.201019,9.589783
2019-01-28 22:41:02:412,-0.141571,-0.094025,-0.122726,-0.636124,0.095734,9.496460
2019-01-28 22:41:02:412,-0.141571,-0.094025,-0.122726,-0.569122,0.106506,9.303833
2019-01-28 22:41:02:412,-0.141571,-0.094025,-0.122726,-0.410004,0.161545,9.374420
2019-01-28 22:41:02:412,-0.141571,-0.094025,-0.122726,-0.436325,0.107697,9.605331
2019-01-28 22:41:02:412,-0.141571,-0.094025,-0.122726,-0.493759,0.208206,9.952286
2019-01-28 22:41:02:412,-0.141571,-0.094025,-0.122726,-0.753372,0.338608,10.388977
2019-01-28 22:41:02:412,-0.141571,-0.094025,-0.122726,-0.393250,0.033524,10.183197
2019-01-28 22:41:02:412,-0.141571,-0.094025,-0.122726,-0.419571,0.446289,10.244217
2019-01-28 22:41:02:412,-0.141571,-0.094025,-0.122726,-0.337021,0.412781,10.137741
2019-01-28 22:41:02:412,-0.141571,-0.094025,-0.122726,-0.577499,0.460648,10.018097
2019-01-28 22:41:02:412,-0.141571,-0.094025,-0.122726,-0.332245,0.162735,9.574234
2019-01-28 22:41:02:412,-0.141571,-0.094025,-0.122726,-0.457870,0.439102,9.570633
2019-01-28 22:41:02:412,-0.141571,-0.094025,-0.122726,-0.162354,0.463043,9.488083
2019-01-28 22:41:02:412,-0.141571,-0.094025,-0.122726,-0.270020,0.585068,9.480911
2019-01-28 22:41:02:412,-0.141571,-0.094025,-0.122726,0.005157,0.490555,9.368439
2019-01-28 22:41:02:412,-0.141571,-0.094025,-0.122726,-0.047485,0.757355,9.214111
2019-01-28 22:41:02:412,-0.141571,-0.094025,-0.122726,-0.140808,1.099533,9.543121
2019-01-28 22:41:02:412,-0.141571,-0.094025,-0.122726,0.017120,1.131821,9.699844
2019-01-28 22:41:02:412,-0.141571,-0.094025,-0.122726,0.242050,1.019363,9.819489
2019-01-28 22:41:02:412,-0.141571,-0.094025,-0.122726,0.324600,0.928452,9.659180
2019-01-28 22:41:02:412,-0.141571,-0.094025,-0.122726,0.178635,0.881790,9.818298
2019-01-28 22:41:02:412,-0.141571,-0.094025,-0.122726,0.074554,0.814774,10.019287
2019-01-28 22:41:02:412,-0.141571,-0.094025,-0.122726,-0.011597,0.910492,9.958282
2019-01-28 22:41:02:412,-0.141571,-0.094025,-0.122726,0.134369,1.014572,9.740524
2019-01-28 22:41:02:412,-0.141571,-0.094025,-0.122726,0.261185,0.991852,9.626862
2019-01-28 22:41:02:412,-0.141571,-0.094025,-0.122726,-0.122864,0.934433,9.714203
2019-01-28 22:41:02:412,-0.141571,-0.094025,-0.122726,-0.253281,0.876999,9.656784
2019-01-28 22:41:02:412,-0.141571,-0.094025,-0.122726,-0.136032,0.946381,9.471344
2019-01-28 22:41:02:412,-0.141571,-0.094025,-0.122726,0.067368,0.874603,9.223679
2019-01-28 22:41:02:412,-0.141571,-0.094025,-0.122726,0.130783,0.789658,8.886292
2019-01-28 22:41:02:412,-0.141571,-0.094025,-0.122726,-0.104919,0.708298,9.346909
2019-01-28 22:41:02:412,-0.141571,-0.094025,-0.122726,-0.366943,0.909302,10.197556
2019-01-28 22:41:02:412,-0.141571,-0.094025,-0.122726,-0.114487,0.881775,10.275330
2019-01-28 22:41:02:412,-0.141571,-0.094025,-0.122726,0.852219,0.556351,9.774033
2019-01-28 22:41:02:412,-0.141571,-0.094025,-0.122726,0.405945,0.729828,10.393768
2019-01-28 22:41:02:412,-0.141571,-0.094025,-0.122726,0.048233,-0.235672,10.095871
2019-01-28 22:41:02:412,-0.141571,-0.094025,-0.122726,-1.109909,0.939209,10.064758
2019-01-28 22:41:02:412,-0.141571,-0.094025,-0.122726,-1.127853,1.489548,9.289474
2019-01-28 22:41:02:412,-0.141571,-0.094025,-0.122726,-1.435333,1.600830,9.238037
2019-01-28 22:41:02:412,-0.141571,-0.094025,-0.122726,-0.605011,0.966721,9.182999
2019-01-28 22:41:02:412,-0.141571,-0.094025,-0.122726,-0.237717,1.028946,9.476120
2019-01-28 22:41:02:412,-0.141571,-0.094025,-0.122726,1.336761,0.162735,9.995361
2019-01-28 22:41:02:412,-0.141571,-0.094025,-0.122726,0.103271,0.594650,9.307419
2019-01-28 22:41:02:412,-0.141571,-0.094025,-0.122726,0.167862,1.089951,9.025070
2019-01-28 22:41:02:412,-0.141571,-0.094025,-0.122726,1.081924,0.422363,9.514404
2019-01-28 22:41:02:412,-0.141571,-0.094025,-0.122726,0.504059,0.884171,10.099457
2019-01-28 22:41:02:412,-0.141571,-0.094025,-0.122726,0.877350,0.708298,11.033844
2019-01-28 22:41:02:412,-0.141571,-0.094025,-0.122726,0.013535,1.038513,10.294464
2019-01-28 22:41:02:412,-0.141571,-0.094025,-0.122726,0.129578,1.141403,9.679504
2019-01-28 22:41:02:412,-0.141571,-0.094025,-0.122726,-0.415985,1.080383,9.344513
2019-01-28 22:41:02:412,-0.141571,-0.094025,-0.122726,-0.213791,0.815979,9.378021
2019-01-28 22:41:02:412,-0.141571,-0.094025,-0.122726,0.060196,0.623352,9.386398
2019-01-28 22:41:02:412,-0.141571,-0.094025,-0.122726,-0.008011,0.897339,8.964066
2019-01-28 22:41:02:412,-0.141571,-0.094025,-0.122726,-0.114487,0.911682,8.778610
2019-01-28 22:41:02:412,-0.141571,-0.094025,-0.122726,-0.152771,0.866226,8.941330
2019-01-28 22:41:02:412,-0.141571,-0.094025,-0.122726,-0.447098,0.832718,9.529968
2019-01-28 22:41:02:412,-0.141571,-0.094025,-0.122726,-0.249680,0.814789,10.454788
2019-01-28 22:41:02:412,-0.141571,-0.094025,-0.122726,-0.094147,0.787262,10.850800
2019-01-28 22:41:02:412,-0.141571,-0.094025,-0.122726,-0.118073,0.903320,11.061371
2019-01-28 22:41:02:412,-0.141571,-0.094025,-0.122726,-0.179092,0.905716,10.862762
2019-01-28 22:41:02:412,-0.141571,-0.094025,-0.122726,0.106857,0.754959,10.843613
2019-01-28 22:41:02:412,-0.141571,-0.094025,-0.122726,0.618912,0.814789,10.478714
2019-01-28 22:41:02:412,-0.141571,-0.094025,-0.122726,0.726593,1.009796,9.504837
2019-01-28 22:41:02:412,-0.141571,-0.094025,-0.122726,0.526794,1.088760,8.798950
2019-01-28 22:41:02:412,-0.141571,-0.094025,-0.122726,0.304260,1.002625,8.924576
2019-01-28 22:41:02:412,-0.141571,-0.094025,-0.122726,0.458603,0.923645,9.102844
2019-01-28 22:41:02:412,-0.141571,-0.094025,-0.122726,0.161896,0.987061,9.059769
2019-01-28 22:41:02:412,-0.141571,-0.094025,-0.122726,0.231277,1.273010,8.961670
2019-01-28 22:41:02:412,-0.141571,-0.094025,-0.122726,-0.302322,1.654663,8.911407
2019-01-28 22:41:02:412,0.039047,-0.074295,-0.086502,-0.302322,1.654663,8.911407
2019-01-28 22:41:02:412,0.039047,-0.074295,-0.086502,-0.468628,1.390259,9.357681
2019-01-28 22:41:02:412,0.039047,-0.074295,-0.086502,-0.170715,0.964340,10.332748
2019-01-28 22:41:02:412,0.039047,-0.074295,-0.086502,0.785217,0.671219,11.197754
2019-01-28 22:41:02:412,0.039047,-0.074295,-0.086502,1.244644,1.006210,10.424881
2019-01-28 22:41:02:412,0.039047,-0.074295,-0.086502,1.116623,1.234726,8.859970
2019-01-28 22:41:02:412,0.039047,-0.074295,-0.086502,1.280533,1.150970,8.252197
2019-01-28 22:41:02:412,0.039047,-0.074295,-0.086502,1.378647,1.022949,8.751099
2019-01-28 22:41:02:412,0.039047,-0.074295,-0.086502,1.043640,1.178482,9.167450
2019-01-28 22:41:02:412,0.039047,-0.074295,-0.086502,0.599777,1.646286,9.466553
2019-01-28 22:41:02:412,0.039047,-0.074295,-0.086502,-0.022369,1.843689,9.911621
2019-01-28 22:41:02:412,-0.127411,-0.043076,0.051682,-0.022369,1.843689,9.911621
2019-01-28 22:41:02:412,-0.127411,-0.043076,0.051682,0.021912,1.387863,10.585205
2019-01-28 22:41:02:412,-0.127411,-0.043076,0.051682,0.058990,0.442688,11.756485
2019-01-28 22:41:02:412,-0.127411,-0.043076,0.051682,0.293503,-0.039459,12.907425
2019-01-28 22:41:02:412,-0.127411,-0.043076,0.051682,0.415527,0.031143,12.181213
2019-01-28 22:41:02:412,-0.127411,-0.043076,0.051682,-0.165939,0.356552,10.149704
2019-01-28 22:41:02:412,-0.127411,-0.043076,0.051682,-0.115692,0.587463,9.125565
2019-01-28 22:41:02:412,-0.127411,-0.043076,0.051682,-0.058258,0.598236,8.711609
2019-01-28 22:41:02:412,-0.127411,-0.043076,0.051682,0.326996,0.882980,8.490280
2019-01-28 22:41:02:412,-0.127411,-0.043076,0.051682,-0.040314,1.539810,8.241425
2019-01-28 22:41:02:412,0.114120,0.201569,-0.059021,-0.040314,1.539810,8.241425
2019-01-28 22:41:02:412,0.114120,0.201569,-0.059021,-0.421967,2.053070,8.438843
2019-01-28 22:41:02:412,0.114120,0.201569,-0.059021,0.063782,1.732437,8.959274
2019-01-28 22:41:02:412,0.114120,0.201569,-0.059021,0.630890,0.525253,10.465561
2019-01-28 22:41:02:412,0.114120,0.201569,-0.059021,1.392990,-0.072952,11.798355
2019-01-28 22:41:02:412,0.114120,0.201569,-0.059021,1.291306,0.087372,11.044617
2019-01-28 22:41:02:412,0.114120,0.201569,-0.059021,0.299469,0.336212,9.428268
2019-01-28 22:41:02:412,0.114120,0.201569,-0.059021,-0.197037,0.307510,8.218689
2019-01-28 22:41:02:412,0.114120,0.201569,-0.059021,-0.509308,0.266830,7.648010
2019-01-28 22:41:02:412,0.114120,0.201569,-0.059021,-1.026154,0.198639,7.411118
2019-01-28 22:41:02:412,0.114120,0.201569,-0.059021,-1.072815,0.031128,7.912415
2019-01-28 22:41:02:412,-0.047501,0.171692,-0.109283,-1.072815,0.031128,7.912415
2019-01-28 22:41:02:412,-0.047501,0.171692,-0.109283,-0.632538,-0.635269,8.641022
2019-01-28 22:41:02:412,-0.047501,0.171692,-0.109283,-0.762939,-1.059998,9.523987
2019-01-28 22:41:02:412,-0.047501,0.171692,-0.109283,-1.426956,-0.866180,10.348312
2019-01-28 22:41:02:412,-0.047501,0.171692,-0.109283,-1.788269,-0.695099,11.318588
2019-01-28 22:41:02:412,-0.047501,0.171692,-0.109283,-1.880402,-0.597000,10.997955
2019-01-28 22:41:02:412,-0.047501,0.171692,-0.109283,-1.763138,-0.526413,10.356689
2019-01-28 22:41:02:412,-0.047501,0.171692,-0.109283,-1.502335,-0.776443,9.826675
2019-01-28 22:41:02:412,-0.047501,0.171692,-0.109283,-0.467422,-1.287323,9.409119
2019-01-28 22:41:02:412,-0.047501,0.171692,-0.109283,0.240845,-1.843643,9.032257
2019-01-28 22:41:02:412,-0.288300,0.067856,0.142929,0.240845,-1.843643,9.032257
2019-01-28 22:41:02:412,-0.288300,0.067856,0.142929,0.785217,-2.066193,8.836044
2019-01-28 22:41:02:412,-0.288300,0.067856,0.142929,0.963486,-2.042252,8.493866
2019-01-28 22:41:02:412,-0.288300,0.067856,0.142929,0.471756,-1.975250,8.672134
2019-01-28 22:41:02:412,-0.288300,0.067856,0.142929,-0.061844,-2.007553,9.732162
2019-01-28 22:41:02:412,-0.288300,0.067856,0.142929,-0.491364,-2.145157,11.029068
2019-01-28 22:41:02:412,-0.288300,0.067856,0.142929,-0.825165,-2.280334,12.000549
2019-01-28 22:41:02:412,-0.288300,0.067856,0.142929,-0.570328,-2.102081,12.266159
2019-01-28 22:41:02:412,-0.288300,0.067856,0.142929,-0.456665,-1.400970,11.283905
2019-01-28 22:41:02:412,-0.288300,0.067856,0.142929,-0.742615,-0.876953,10.233444
2019-01-28 22:41:02:412,-0.288300,0.067856,0.142929,-0.846695,-0.931992,9.756088
2019-01-28 22:41:02:412,0.004166,-0.023773,-0.092972,-0.846695,-0.931992,9.756088
2019-01-28 22:41:02:412,0.004166,-0.023773,-0.092972,-0.388474,-1.044449,9.051407
2019-01-28 22:41:02:412,0.004166,-0.023773,-0.092972,-0.036728,-0.909256,8.781006
2019-01-28 22:41:02:412,0.004166,-0.023773,-0.092972,-0.200623,-0.784821,9.044220
2019-01-28 22:41:02:412,0.004166,-0.023773,-0.092972,-0.473419,-0.703476,9.430664
2019-01-28 22:41:02:412,0.004166,-0.023773,-0.092972,-0.459061,-0.421112,9.203339
2019-01-28 22:41:02:412,0.004166,-0.023773,-0.092972,-0.589462,-0.113632,9.057373
2019-01-28 22:41:02:412,0.004166,-0.023773,-0.092972,-0.833542,-0.224899,9.381607
2019-01-28 22:41:02:412,0.004166,-0.023773,-0.092972,-0.749786,-0.640060,10.294464
2019-01-28 22:41:02:412,0.004166,-0.023773,-0.092972,-0.630142,-0.805176,11.169052
2019-01-28 22:41:02:412,0.114746,-0.106110,-0.071228,-0.630142,-0.805176,11.169052
2019-01-28 22:41:02:412,0.114746,-0.106110,-0.071228,-0.493744,-0.556320,10.896255
2019-01-28 22:41:02:412,0.114746,-0.106110,-0.071228,-0.600235,-0.122009,9.957077
2019-01-28 22:41:02:412,0.114746,-0.106110,-0.071228,-0.656464,0.107712,9.129166
2019-01-28 22:41:02:412,0.114746,-0.106110,-0.071228,-0.517685,0.051468,8.654190
2019-01-28 22:41:02:412,0.114746,-0.106110,-0.071228,-0.255676,-0.129196,8.560867
2019-01-28 22:41:02:412,0.114746,-0.106110,-0.071228,-0.235321,-0.269180,8.513016
2019-01-28 22:41:02:412,0.114746,-0.106110,-0.071228,-0.346588,-0.571869,8.990387
2019-01-28 22:41:02:412,0.114746,-0.106110,-0.071228,-0.305923,-0.617325,9.857773
2019-01-28 22:41:02:412,0.114746,-0.106110,-0.071228,-0.201828,-0.253616,10.168839
2019-01-28 22:41:02:412,0.114746,-0.106110,-0.071228,-0.442307,-0.144745,9.947510
2019-01-28 22:41:03:413,0.015656,-0.097015,-0.004639,-0.442307,-0.144745,9.947510
2019-01-28 22:41:03:413,0.015656,-0.097015,-0.004639,-0.605026,-0.421127,10.258575
2019-01-28 22:41:03:413,0.015656,-0.097015,-0.004639,-0.326263,-0.589813,11.058975
2019-01-28 22:41:03:413,0.015656,-0.097015,-0.004639,-0.248489,-0.507263,11.605728
2019-01-28 22:41:03:413,0.015656,-0.097015,-0.004639,-0.230545,-0.351730,11.667953
2019-01-28 22:41:03:413,0.015656,-0.097015,-0.004639,-0.169525,-0.413940,11.362869
2019-01-28 22:41:03:413,0.015656,-0.097015,-0.004639,-0.138412,-0.301483,11.294662
2019-01-28 22:41:03:413,0.015656,-0.097015,-0.004639,-0.204224,0.047882,10.420090
2019-01-28 22:41:03:413,0.015656,-0.097015,-0.004639,-0.273621,0.302719,9.337341
2019-01-28 22:41:03:413,0.015656,-0.097015,-0.004639,-0.224564,0.086166,8.589584
2019-01-28 22:41:03:413,0.253204,0.064667,-0.039520,-0.224564,0.086166,8.589584
2019-01-28 22:41:03:413,0.253204,0.064667,-0.039520,0.033875,-0.204575,8.870743
2019-01-28 22:41:03:413,0.253204,0.064667,-0.039520,0.353317,-0.246445,8.733154
2019-01-28 22:41:03:413,0.253204,0.064667,-0.039520,0.396378,-0.151932,8.122986
2019-01-28 22:41:03:413,0.253204,0.064667,-0.039520,0.118820,-0.172256,7.791580
2019-01-28 22:41:03:413,0.253204,0.064667,-0.039520,-0.127655,-0.278748,7.913620
2019-01-28 22:41:03:413,0.253204,0.064667,-0.039520,-0.356171,-0.308655,8.353897
2019-01-28 22:41:03:413,0.253204,0.064667,-0.039520,-0.534439,-0.117233,8.904236
2019-01-28 22:41:03:413,0.253204,0.064667,-0.039520,-0.782089,-0.060989,9.322983
2019-01-28 22:41:03:413,0.253204,0.064667,-0.039520,-0.910110,-0.120819,9.797958
2019-01-28 22:41:03:413,0.253204,0.064667,-0.039520,-0.660049,-0.393600,10.685684
2019-01-28 22:41:03:413,-0.149582,0.028015,-0.051987,-0.660049,-0.393600,10.685684
2019-01-28 22:41:03:413,-0.149582,0.028015,-0.051987,-0.362152,-0.561096,11.216904
2019-01-28 22:41:03:413,-0.149582,0.028015,-0.051987,-0.270020,-0.502472,11.487289
2019-01-28 22:41:03:413,-0.149582,0.028015,-0.051987,-0.164734,-0.378052,11.245621
2019-01-28 22:41:03:413,-0.149582,0.028015,-0.051987,-0.073807,-0.202179,10.488281
2019-01-28 22:41:03:413,-0.149582,0.028015,-0.051987,-0.149185,-0.075348,9.675919
2019-01-28 22:41:03:413,-0.149582,0.028015,-0.051987,-0.161148,-0.056213,8.958069
2019-01-28 22:41:03:413,-0.149582,0.028015,-0.051987,-0.343002,-0.069366,8.662567
2019-01-28 22:41:03:413,-0.149582,0.028015,-0.051987,-0.405212,-0.187820,8.666153
2019-01-28 22:41:03:413,-0.149582,0.028015,-0.051987,-0.283188,-0.357712,8.949707
2019-01-28 22:41:03:413,-0.149582,0.028015,-0.051987,-0.116882,-0.428299,9.101654
2019-01-28 22:41:03:413,-0.149582,0.028015,-0.051987,-0.127655,-0.500076,9.446213
2019-01-28 22:41:03:413,-0.149582,0.028015,-0.051987,-0.027161,-0.623306,10.086288
2019-01-28 22:41:03:413,-0.149582,0.028015,-0.051987,-0.073807,-0.830292,10.671341
2019-01-28 22:41:03:413,-0.149582,0.028015,-0.051987,0.058990,-0.995392,11.105637
2019-01-28 22:41:03:413,-0.174683,-0.054123,0.061630,0.058990,-0.995392,11.105637
2019-01-28 22:41:03:413,-0.174683,-0.054123,0.061630,0.135559,-0.945145,11.169052
2019-01-28 22:41:03:413,-0.174683,-0.054123,0.061630,0.145142,-0.807556,10.609116
2019-01-28 22:41:03:413,-0.174683,-0.054123,0.061630,0.118820,-0.647247,9.843414
2019-01-28 22:41:03:413,-0.174683,-0.054123,0.061630,0.104462,-0.607758,9.324188
2019-01-28 22:41:03:413,-0.174683,-0.054123,0.061630,0.073364,-0.652023,9.003540
2019-01-28 22:41:03:413,-0.174683,-0.054123,0.061630,0.050629,-0.637665,8.684097
2019-01-28 22:41:03:413,-0.174683,-0.054123,0.061630,-0.024765,-0.683136,8.576431
2019-01-28 22:41:03:413,-0.174683,-0.054123,0.061630,0.080536,-0.870972,8.698456
2019-01-28 22:41:03:413,-0.174683,-0.054123,0.061630,0.256393,-0.966675,9.295471
2019-01-28 22:41:03:413,-0.174683,-0.054123,0.061630,0.146332,-0.904465,9.421082
2019-01-28 22:41:03:413,-0.011276,-0.085770,0.005981,0.146332,-0.904465,9.421082
2019-01-28 22:41:03:413,-0.011276,-0.085770,0.005981,-0.096542,-0.825500,9.464157
2019-01-28 22:41:03:413,-0.011276,-0.085770,0.005981,0.056595,-0.868576,9.476120
2019-01-28 22:41:03:413,-0.011276,-0.085770,0.005981,0.261185,-1.031281,9.696259
2019-01-28 22:41:03:413,-0.011276,-0.085770,0.005981,0.623703,-1.249039,10.059967
2019-01-28 22:41:03:413,-0.011276,-0.085770,0.005981,0.828293,-1.418930,10.100647
2019-01-28 22:41:03:413,-0.011276,-0.085770,0.005981,0.757706,-1.473953,9.921188
2019-01-28 22:41:03:413,-0.011276,-0.085770,0.005981,0.543549,-1.372269,9.696259
2019-01-28 22:41:03:413,-0.011276,-0.085770,0.005981,0.227692,-1.170074,9.437836
2019-01-28 22:41:03:413,-0.011276,-0.085770,0.005981,-0.138428,-0.788406,9.561066
2019-01-28 22:41:04:414,-0.151703,-0.084000,-0.100174,-0.138428,-0.788406,9.561066
2019-01-28 22:41:04:414,-0.151703,-0.084000,-0.100174,-0.140808,-0.445053,9.724976
2019-01-28 22:41:04:414,-0.151703,-0.084000,-0.100174,0.224106,-0.392410,9.793167
2019-01-28 22:41:04:414,-0.151703,-0.084000,-0.100174,0.222900,-0.484528,10.400955
2019-01-28 22:41:04:414,-0.151703,-0.084000,-0.100174,0.085312,-0.452225,10.503845
2019-01-28 22:41:04:414,-0.151703,-0.084000,-0.100174,0.074554,-0.407959,10.260971
2019-01-28 22:41:04:414,-0.151703,-0.084000,-0.100174,0.297073,-0.472565,9.939133
2019-01-28 22:41:04:414,-0.151703,-0.084000,-0.100174,0.431076,-0.608948,10.080307
2019-01-28 22:41:04:414,-0.151703,-0.084000,-0.100174,0.371262,-0.710648,10.232254
2019-01-28 22:41:04:414,-0.151703,-0.084000,-0.100174,0.091293,-0.693893,10.070740
2019-01-28 22:41:04:414,-0.151703,-0.084000,-0.100174,-0.139618,-0.689117,9.850601
2019-01-28 22:41:04:414,0.092987,-0.101532,-0.007690,-0.139618,-0.689117,9.850601
2019-01-28 22:41:04:414,0.092987,-0.101532,-0.007690,-0.108505,-0.707062,10.232254
2019-01-28 22:41:04:414,0.092987,-0.101532,-0.007690,0.023102,-0.583832,10.564865
2019-01-28 22:41:04:414,0.092987,-0.101532,-0.007690,0.001572,-0.392410,10.420090
2019-01-28 22:41:04:414,0.092987,-0.101532,-0.007690,-0.005615,-0.208160,10.219086
2019-01-28 22:41:04:414,0.092987,-0.101532,-0.007690,0.029083,-0.122025,10.018097
2019-01-28 22:41:04:414,0.092987,-0.101532,-0.007690,0.025497,-0.094498,9.983398
2019-01-28 22:41:04:414,0.092987,-0.101532,-0.007690,0.078140,-0.129196,9.741730
2019-01-28 22:41:04:414,0.092987,-0.101532,-0.007690,0.100876,-0.166275,9.399551
2019-01-28 22:41:04:414,0.092987,-0.101532,-0.007690,0.078140,-0.253616,9.394775
2019-01-28 22:41:04:414,0.073807,0.033279,-0.032074,0.078140,-0.253616,9.394775
2019-01-28 22:41:04:414,0.073807,0.033279,-0.032074,0.055405,-0.295502,9.471329
2019-01-28 22:41:04:414,0.073807,0.033279,-0.032074,0.102066,-0.413940,9.537140
2019-01-28 22:41:04:414,0.073807,0.033279,-0.032074,0.194183,-0.435471,9.525177
2019-01-28 22:41:04:414,0.073807,0.033279,-0.032074,0.151123,-0.498886,9.503632
2019-01-28 22:41:04:414,0.073807,0.033279,-0.032074,0.173843,-0.412735,9.443817
2019-01-28 22:41:04:414,0.073807,0.033279,-0.032074,0.146332,-0.342148,9.326569
2019-01-28 22:41:04:414,0.073807,0.033279,-0.032074,0.246841,-0.209351,9.086090
2019-01-28 22:41:04:414,0.073807,0.033279,-0.032074,0.249222,-0.181839,8.838440
2019-01-28 22:41:04:414,0.073807,0.033279,-0.032074,0.154709,-0.204559,9.130356
2019-01-28 22:41:04:414,0.073807,0.033279,-0.032074,0.134369,-0.235672,9.599350
2019-01-28 22:41:04:414,0.076187,0.020508,0.070236,0.134369,-0.235672,9.599350
2019-01-28 22:41:04:414,0.076187,0.020508,0.070236,0.295883,-0.236877,9.921188
2019-01-28 22:41:04:414,0.076187,0.020508,0.070236,0.292297,-0.328995,10.132950
2019-01-28 22:41:04:414,0.076187,0.020508,0.070236,0.347336,-0.445053,10.550491
2019-01-28 22:41:04:414,0.076187,0.020508,0.070236,0.291092,-0.575455,10.725174
2019-01-28 22:41:04:414,0.076187,0.020508,0.070236,0.096085,-0.470169,10.203537
2019-01-28 22:41:04:414,0.076187,0.020508,0.070236,-0.060654,-0.245239,9.769241
2019-01-28 22:41:04:414,0.076187,0.020508,0.070236,0.258804,-0.124405,9.849411
2019-01-28 22:41:04:414,0.076187,0.020508,0.070236,0.159500,0.015579,10.019302
2019-01-28 22:41:04:414,0.076187,0.020508,0.070236,0.112839,0.247681,9.906830
2019-01-28 22:41:04:414,-0.012131,0.014709,0.061264,0.112839,0.247681,9.906830
2019-01-28 22:41:04:414,-0.012131,0.014709,0.061264,0.125992,0.268021,9.663956
2019-01-28 22:41:04:414,-0.012131,0.014709,0.061264,0.293488,0.143600,9.410324
2019-01-28 22:41:04:414,-0.012131,0.014709,0.061264,0.388000,-0.039459,9.429459
2019-01-28 22:41:04:414,-0.012131,0.014709,0.061264,0.458603,-0.222504,9.568253
2019-01-28 22:41:04:414,-0.012131,0.014709,0.061264,0.516022,-0.422318,9.836243
2019-01-28 22:41:04:414,-0.012131,0.014709,0.061264,0.463379,-0.428299,10.079117
2019-01-28 22:41:04:414,-0.012131,0.014709,0.061264,0.386810,-0.168671,10.039627
2019-01-28 22:41:04:414,-0.012131,0.014709,0.061264,0.131973,0.034714,9.860168
2019-01-28 22:41:04:414,-0.012131,0.014709,0.061264,-0.019974,0.177094,9.651993
2019-01-28 22:41:04:414,-0.012131,0.014709,0.061264,-0.084579,0.173508,9.709427
2019-01-28 22:41:04:414,0.095978,-0.002151,-0.005554,-0.084579,0.173508,9.709427
2019-01-28 22:41:05:415,0.095978,-0.002151,-0.005554,-0.045105,0.189056,9.868546
2019-01-28 22:41:05:415,0.095978,-0.002151,-0.005554,-0.100128,0.203415,9.970245
2019-01-28 22:41:05:415,0.095978,-0.002151,-0.005554,-0.065445,0.185471,9.979813
2019-01-28 22:41:05:415,0.095978,-0.002151,-0.005554,-0.047485,0.232132,10.081512
2019-01-28 22:41:05:415,0.095978,-0.002151,-0.005554,-0.113297,0.337418,9.970245
2019-01-28 22:41:05:415,0.095978,-0.002151,-0.005554,-0.237717,0.417572,9.759674
2019-01-28 22:41:05:415,0.095978,-0.002151,-0.005554,-0.235336,0.385269,9.601746
2019-01-28 22:41:05:415,0.095978,-0.002151,-0.005554,-0.104919,0.307495,9.659180
2019-01-28 22:41:05:415,0.095978,-0.002151,-0.005554,-0.028351,0.126846,9.732162
2019-01-28 22:41:05:415,0.050720,0.035477,-0.009354,-0.028351,0.126846,9.732162
2019-01-28 22:41:05:415,0.050720,0.035477,-0.009354,-0.000839,-0.099274,10.195160
2019-01-28 22:41:05:415,0.050720,0.035477,-0.009354,0.271957,-0.331390,10.701248
2019-01-28 22:41:05:415,0.050720,0.035477,-0.009354,0.476547,-0.313446,10.886688
2019-01-28 22:41:05:415,0.050720,0.035477,-0.009354,0.279144,-0.062195,10.516998
2019-01-28 22:41:05:415,0.050720,0.035477,-0.009354,0.014740,0.250076,9.946320
2019-01-28 22:41:05:415,0.050720,0.035477,-0.009354,-0.085770,0.495346,9.230865
2019-01-28 22:41:05:415,0.050720,0.035477,-0.009354,-0.146790,0.679596,8.753494
2019-01-28 22:41:05:415,0.050720,0.035477,-0.009354,-0.194656,0.727448,8.541733
2019-01-28 22:41:05:415,0.050720,0.035477,-0.009354,-0.168335,0.745392,8.819290
2019-01-28 22:41:05:415,0.050720,0.035477,-0.009354,-0.003220,0.650879,9.314606
2019-01-28 22:41:05:415,0.109909,-0.048447,0.033218,-0.003220,0.650879,9.314606
2019-01-28 22:41:05:415,0.109909,-0.048447,0.033218,0.444244,0.485764,9.673538
2019-01-28 22:41:05:415,0.109909,-0.048447,0.033218,0.738556,0.424759,9.815903
2019-01-28 22:41:05:415,0.109909,-0.048447,0.033218,0.868973,0.575500,9.697464
2019-01-28 22:41:05:415,0.109909,-0.048447,0.033218,0.781631,0.704712,9.398361
2019-01-28 22:41:05:415,0.109909,-0.048447,0.033218,0.781631,0.636520,9.187790
2019-01-28 22:41:05:415,0.109909,-0.048447,0.033218,0.889297,0.491745,9.474930
2019-01-28 22:41:05:415,0.109909,-0.048447,0.033218,1.019714,0.429535,9.784790
2019-01-28 22:41:05:415,0.109909,-0.048447,0.033218,1.022110,0.581482,9.765656
2019-01-28 22:41:05:415,0.109909,-0.048447,0.033218,0.769669,0.746582,9.632843
2019-01-28 22:41:05:415,0.002579,-0.086563,-0.111298,0.769669,0.746582,9.632843
2019-01-28 22:41:05:415,0.002579,-0.086563,-0.111298,0.508850,0.837509,9.817108
2019-01-28 22:41:05:415,0.002579,-0.086563,-0.111298,0.496887,0.777695,9.994171
2019-01-28 22:41:05:415,0.002579,-0.086563,-0.111298,0.581833,0.709488,9.771637
2019-01-28 22:41:05:415,0.002579,-0.086563,-0.111298,0.793594,0.614990,9.477325
2019-01-28 22:41:05:415,0.002579,-0.086563,-0.111298,0.618912,0.461838,9.332550
2019-01-28 22:41:05:415,0.002579,-0.086563,-0.111298,0.450226,0.441498,9.519196
2019-01-28 22:41:05:415,0.002579,-0.086563,-0.111298,0.388016,0.452271,9.758484
2019-01-28 22:41:05:415,0.002579,-0.086563,-0.111298,0.525589,0.375702,9.720184
2019-01-28 22:41:05:415,0.002579,-0.086563,-0.111298,0.828293,0.162735,9.710617
2019-01-28 22:41:05:415,0.002579,-0.086563,-0.111298,0.851013,0.007202,10.056381
2019-01-28 22:41:05:415,-0.096436,-0.017593,-0.171158,0.851013,0.007202,10.056381
2019-01-28 22:41:06:416,-0.096436,-0.017593,-0.171158,0.745743,0.106506,10.269348
2019-01-28 22:41:06:416,-0.096436,-0.017593,-0.171158,0.301865,0.270416,10.001343
2019-01-28 22:41:06:416,-0.096436,-0.017593,-0.171158,0.135559,0.338608,9.675919
2019-01-28 22:41:06:416,-0.096436,-0.017593,-0.171158,0.287506,0.189056,9.506027
2019-01-28 22:41:06:416,-0.096436,-0.017593,-0.171158,0.700272,0.044296,9.673538
2019-01-28 22:41:06:416,-0.096436,-0.017593,-0.171158,0.443039,0.098129,9.484497
2019-01-28 22:41:06:416,-0.096436,-0.017593,-0.171158,0.187012,0.224945,9.250000
2019-01-28 22:41:06:416,-0.096436,-0.017593,-0.171158,0.323395,0.325455,9.610123
2019-01-28 22:41:06:416,-0.096436,-0.017593,-0.171158,0.695496,0.380493,9.616104
2019-01-28 22:41:06:416,-0.076019,0.001328,-0.050827,0.695496,0.380493,9.616104
2019-01-28 22:41:06:416,-0.076019,0.001328,-0.050827,0.770859,0.388855,9.423477
2019-01-28 22:41:06:416,-0.076019,0.001328,-0.050827,0.750519,0.376892,9.653183
2019-01-28 22:41:06:416,-0.076019,0.001328,-0.050827,0.865372,0.425949,10.034851
2019-01-28 22:41:06:416,-0.076019,0.001328,-0.050827,0.879730,0.466629,9.795563
2019-01-28 22:41:06:416,-0.076019,0.001328,-0.050827,0.606949,0.393646,9.378021
2019-01-28 22:41:06:416,-0.076019,0.001328,-0.050827,0.395187,0.275208,9.428268
2019-01-28 22:41:06:416,-0.076019,0.001328,-0.050827,0.542343,0.123260,9.389984
2019-01-28 22:41:06:416,-0.076019,0.001328,-0.050827,0.496887,-0.008347,9.485703
2019-01-28 22:41:06:416,-0.076019,0.001328,-0.050827,0.390411,-0.143555,9.754883
2019-01-28 22:41:06:416,-0.076019,0.001328,-0.050827,0.384415,-0.227295,9.738129
2019-01-28 22:41:06:416,-0.076157,0.027649,0.011795,0.384415,-0.227295,9.738129
2019-01-28 22:41:06:416,-0.076157,0.027649,0.011795,0.407150,-0.285919,9.914001
2019-01-28 22:41:06:416,-0.076157,0.027649,0.011795,0.615326,-0.278748,10.110229
2019-01-28 22:41:06:416,-0.076157,0.027649,0.011795,0.755310,-0.289505,10.488281
2019-01-28 22:41:06:416,-0.076157,0.027649,0.011795,0.660797,-0.168671,10.531357
2019-01-28 22:41:06:416,-0.076157,0.027649,0.011795,0.520813,-0.022705,10.044418
2019-01-28 22:41:06:416,-0.076157,0.027649,0.011795,0.425095,-0.003571,9.607727
2019-01-28 22:41:06:416,-0.076157,0.027649,0.011795,0.206161,-0.020325,9.573029
2019-01-28 22:41:06:416,-0.076157,0.027649,0.011795,0.450226,-0.087326,9.789581
2019-01-28 22:41:06:416,-0.076157,0.027649,0.011795,0.543533,-0.194992,9.677124
2019-01-28 22:41:06:416,0.068130,0.120743,0.027908,0.543533,-0.194992,9.677124
2019-01-28 22:41:06:416,0.068130,0.120743,0.027908,0.831879,-0.272766,9.466553
2019-01-28 22:41:06:416,0.068130,0.120743,0.027908,0.761292,-0.348145,9.593369
2019-01-28 22:41:06:416,0.068130,0.120743,0.027908,0.805557,-0.171066,9.683105
2019-01-28 22:41:06:416,0.068130,0.120743,0.027908,0.573456,-0.059799,9.802750
2019-01-28 22:41:06:416,0.068130,0.120743,0.027908,0.536362,0.001221,9.824280
2019-01-28 22:41:06:416,0.068130,0.120743,0.027908,0.737366,0.022751,9.770432
2019-01-28 22:41:06:416,0.068130,0.120743,0.027908,0.828293,-0.124405,10.051590
2019-01-28 22:41:06:416,0.068130,0.120743,0.027908,0.731369,-0.021515,10.101837
2019-01-28 22:41:06:416,0.068130,0.120743,0.027908,0.667969,0.055054,9.734543
2019-01-28 22:41:06:416,0.068130,0.120743,0.027908,0.152313,-0.065781,8.822891
2019-01-28 22:41:06:416,-0.150192,-0.119675,-0.131332,0.152313,-0.065781,8.822891
2019-01-28 22:41:06:416,-0.150192,-0.119675,-0.131332,-0.681595,0.153168,8.246216
2019-01-28 22:41:06:416,-0.150192,-0.119675,-0.131332,-1.435333,0.147186,8.040421
2019-01-28 22:41:06:416,-0.150192,-0.119675,-0.131332,-1.205612,-0.100479,9.082504
2019-01-28 22:41:06:416,-0.150192,-0.119675,-0.131332,-0.874207,-0.167480,9.902039
2019-01-28 22:41:06:416,-0.150192,-0.119675,-0.131332,-0.877808,-0.131577,10.458374
2019-01-28 22:41:06:416,-0.150192,-0.119675,-0.131332,-0.185074,-0.173462,10.966858
2019-01-28 22:41:06:416,-0.150192,-0.119675,-0.131332,-0.353775,-0.077744,11.202545
2019-01-28 22:41:06:416,-0.150192,-0.119675,-0.131332,-0.198242,-0.088516,11.667953
2019-01-28 22:41:06:416,-0.150192,-0.119675,-0.131332,0.025497,-0.284729,11.903641
2019-01-28 22:41:06:416,0.380463,0.109879,-0.131271,0.025497,-0.284729,11.903641
2019-01-28 22:41:06:416,0.380463,0.109879,-0.131271,-0.073807,-0.150726,11.531555
2019-01-28 22:41:06:416,0.380463,0.109879,-0.131271,-0.065445,-0.057404,10.790970
2019-01-28 22:41:06:416,0.380463,0.109879,-0.131271,0.373657,-0.041855,10.048004
2019-01-28 22:41:06:416,0.380463,0.109879,-0.131271,0.015930,0.250076,9.590973
2019-01-28 22:41:06:416,0.380463,0.109879,-0.131271,-0.564346,0.644897,9.458176
2019-01-28 22:41:06:416,0.380463,0.109879,-0.131271,-0.564346,0.966721,9.239243
2019-01-28 22:41:06:416,0.380463,0.109879,-0.131271,-0.455475,0.955963,8.806137
2019-01-28 22:41:06:416,0.380463,0.109879,-0.131271,-0.216187,0.827942,8.345505
2019-01-28 22:41:06:416,0.380463,0.109879,-0.131271,0.805557,0.614975,8.347900
2019-01-28 22:41:06:416,0.380463,0.109879,-0.131271,0.712234,0.576706,8.998749
2019-01-28 22:41:06:416,0.197433,0.171265,-0.115265,0.712234,0.576706,8.998749
2019-01-28 22:41:06:416,0.197433,0.171265,-0.115265,-0.036728,0.756165,9.429459
2019-01-28 22:41:06:416,0.197433,0.171265,-0.115265,-0.457855,1.052872,9.655594
2019-01-28 22:41:06:416,0.197433,0.171265,-0.115265,-0.701935,1.397430,9.679504
2019-01-28 22:41:06:416,0.197433,0.171265,-0.115265,-0.709106,1.359146,9.663956
2019-01-28 22:41:06:416,0.197433,0.171265,-0.115265,-0.307114,1.152176,9.543121
2019-01-28 22:41:06:416,0.197433,0.171265,-0.115265,-0.195847,1.045685,9.442627
2019-01-28 22:41:06:416,0.197433,0.171265,-0.115265,-0.080994,1.060043,9.295456
2019-01-28 22:41:06:416,0.197433,0.171265,-0.115265,-0.199432,1.274200,8.940140
2019-01-28 22:41:06:416,0.197433,0.171265,-0.115265,-0.368134,1.340012,8.881500
2019-01-28 22:41:07:417,0.043213,-0.048080,0.049408,-0.368134,1.340012,8.881500
2019-01-28 22:41:07:417,0.043213,-0.048080,0.049408,-0.235321,1.263428,9.226074
2019-01-28 22:41:07:417,0.043213,-0.048080,0.049408,-0.271225,0.973907,9.902039
2019-01-28 22:41:07:417,0.043213,-0.048080,0.049408,-0.284378,0.699921,10.752686
2019-01-28 22:41:07:417,0.043213,-0.048080,0.049408,0.067368,0.441498,11.397568
2019-01-28 22:41:07:417,0.043213,-0.048080,0.049408,0.306656,0.271606,11.907227
2019-01-28 22:41:07:417,0.043213,-0.048080,0.049408,0.499268,0.233322,11.616501
2019-01-28 22:41:07:417,0.043213,-0.048080,0.049408,0.346130,0.546783,10.917801
2019-01-28 22:41:07:417,0.043213,-0.048080,0.049408,0.316223,0.912888,10.107834
2019-01-28 22:41:07:417,0.043213,-0.048080,0.049408,0.371262,1.110291,9.435440
2019-01-28 22:41:07:417,0.043213,-0.048080,0.049408,0.342545,1.142609,8.832458
2019-01-28 22:41:07:417,0.043213,-0.048080,0.049408,-0.697144,2.025558,8.833649
2019-01-28 22:41:07:417,0.043213,-0.048080,0.049408,0.018311,0.814774,7.722183
2019-01-28 22:41:07:417,0.043213,-0.048080,0.049408,0.325790,1.246689,7.734146
2019-01-28 22:41:07:417,0.043213,-0.048080,0.049408,0.062592,0.972717,8.267746
2019-01-28 22:41:07:417,0.043213,-0.048080,0.049408,-0.136017,0.997833,8.587189
2019-01-28 22:41:07:417,0.043213,-0.048080,0.049408,0.151123,0.866226,8.959274
2019-01-28 22:41:07:417,0.043213,-0.048080,0.049408,0.135559,0.750168,9.311020
2019-01-28 22:41:07:417,0.043213,-0.048080,0.049408,0.086517,0.690353,9.971436
2019-01-28 22:41:07:417,0.043213,-0.048080,0.049408,0.070969,0.841095,10.819687
2019-01-28 22:41:07:417,-0.091248,-0.115768,-0.024796,0.070969,0.841095,10.819687
2019-01-28 22:41:07:417,-0.091248,-0.115768,-0.024796,0.238449,0.872208,10.757477
2019-01-28 22:41:07:417,-0.091248,-0.115768,-0.024796,0.154709,0.886566,10.304047
2019-01-28 22:41:07:417,-0.091248,-0.115768,-0.024796,0.142746,0.778885,10.654587
2019-01-28 22:41:07:417,-0.091248,-0.115768,-0.024796,0.175049,0.831528,10.471542
2019-01-28 22:41:07:417,-0.091248,-0.115768,-0.024796,0.453812,0.923660,9.738129
2019-01-28 22:41:07:417,-0.091248,-0.115768,-0.024796,0.416733,1.072006,9.430664
2019-01-28 22:41:07:417,-0.091248,-0.115768,-0.024796,0.338959,1.363937,9.271530
2019-01-28 22:41:07:417,-0.091248,-0.115768,-0.024796,0.031479,1.945389,8.997559
2019-01-28 22:41:07:417,-0.091248,-0.115768,-0.024796,-0.305908,2.583084,8.814514
2019-01-28 22:41:07:417,-0.091248,-0.115768,-0.024796,-0.475800,2.642899,8.685303
2019-01-28 22:41:07:417,0.152542,-0.030975,0.012039,-0.475800,2.642899,8.685303
2019-01-28 22:41:07:417,0.152542,-0.030975,0.012039,-0.149185,2.347382,8.924576
2019-01-28 22:41:07:417,0.152542,-0.030975,0.012039,0.037460,1.953766,9.733353
2019-01-28 22:41:07:417,0.152542,-0.030975,0.012039,0.250427,1.758759,10.357880
2019-01-28 22:41:07:417,0.152542,-0.030975,0.012039,0.244446,1.942993,10.648605
2019-01-28 22:41:07:417,0.152542,-0.030975,0.012039,0.075745,2.172714,10.853195
2019-01-28 22:41:07:417,0.152542,-0.030975,0.012039,0.012344,2.287567,10.951294
2019-01-28 22:41:07:417,0.152542,-0.030975,0.012039,-0.157562,2.392853,11.243225
2019-01-28 22:41:07:417,0.152542,-0.030975,0.012039,-0.241302,2.573502,11.354492
2019-01-28 22:41:07:417,0.152542,-0.030975,0.012039,0.197784,2.542404,11.563858
2019-01-28 22:41:07:417,0.069778,0.019592,0.097672,0.197784,2.542404,11.563858
2019-01-28 22:41:07:417,0.069778,0.019592,0.097672,0.629684,2.103317,11.397552
2019-01-28 22:41:07:417,0.069778,0.019592,0.097672,0.913239,1.490753,11.036240
2019-01-28 22:41:07:417,0.069778,0.019592,0.097672,0.851013,1.462036,10.038437
2019-01-28 22:41:07:417,0.069778,0.019592,0.097672,0.371262,1.817368,8.422089
2019-01-28 22:41:07:417,0.069778,0.019592,0.097672,-0.004425,2.176300,6.272141
2019-01-28 22:41:07:417,0.069778,0.019592,0.097672,-0.236526,2.343796,4.847214
2019-01-28 22:41:07:417,0.069778,0.019592,0.097672,-0.486572,2.428741,4.651001
2019-01-28 22:41:07:417,0.069778,0.019592,0.097672,-0.457855,2.232529,5.538727
2019-01-28 22:41:07:417,0.069778,0.019592,0.097672,-0.188660,1.615189,7.773621
2019-01-28 22:41:07:417,0.069778,0.019592,0.097672,-0.145599,1.005005,10.500259
2019-01-28 22:41:07:417,-0.070419,0.157944,-0.178436,-0.145599,1.005005,10.500259
2019-01-28 22:41:07:417,-0.070419,0.157944,-0.178436,-0.317871,0.591049,13.108429
2019-01-28 22:41:07:417,-0.070419,0.157944,-0.178436,-0.406418,0.491745,14.498657
2019-01-28 22:41:07:417,-0.070419,0.157944,-0.178436,-0.209015,0.289551,13.877716
2019-01-28 22:41:07:417,-0.070419,0.157944,-0.178436,-0.089371,0.076599,11.377228
2019-01-28 22:41:07:417,-0.070419,0.157944,-0.178436,-0.179092,0.184280,9.034653
2019-01-28 22:41:07:417,-0.070419,0.157944,-0.178436,-0.224564,-0.106461,7.125183
2019-01-28 22:41:07:417,-0.070419,0.157944,-0.178436,-0.189865,-0.589813,5.207321
2019-01-28 22:41:08:418,-0.070419,0.157944,-0.178436,-0.894547,-1.470367,4.942917
2019-01-28 22:41:08:418,-0.070419,0.157944,-0.178436,-1.202026,-2.316223,6.096252
2019-01-28 22:41:08:418,-0.257767,0.043655,-0.107147,-1.202026,-2.316223,6.096252
2019-01-28 22:41:08:418,-0.257767,0.043655,-0.107147,-1.074020,-2.848633,7.905228
2019-01-28 22:41:08:418,-0.257767,0.043655,-0.107147,-1.278595,-2.932388,9.411514
2019-01-28 22:41:08:418,-0.257767,0.043655,-0.107147,-1.443710,-2.581833,10.444016
2019-01-28 22:41:08:418,-0.257767,0.043655,-0.107147,-0.506912,-2.673965,12.068741
2019-01-28 22:41:08:418,-0.257767,0.043655,-0.107147,5.631882,-8.775650,27.261978
2019-01-28 22:41:08:418,-0.257767,0.043655,-0.107147,2.581024,-3.964890,11.882111
2019-01-28 22:41:08:418,-0.257767,0.043655,-0.107147,-1.094345,-0.533585,5.868942
2019-01-28 22:41:08:418,-0.257767,0.043655,-0.107147,-0.777298,-0.151932,8.648209
2019-01-28 22:41:08:418,-0.257767,0.043655,-0.107147,-0.693558,-0.001175,9.190186
2019-01-28 22:41:08:418,-0.257767,0.043655,-0.107147,-0.157562,0.198639,9.087296
2019-01-28 22:41:08:418,-0.257767,0.043655,-0.107147,0.187012,0.222549,9.186584
2019-01-28 22:41:08:418,-0.257767,0.043655,-0.107147,-0.224548,0.345779,9.224869
2019-01-28 22:41:08:418,-0.257767,0.043655,-0.107147,-0.636124,0.469009,9.263153
2019-01-28 22:41:08:418,-0.257767,0.043655,-0.107147,-0.896942,0.885361,9.143509
2019-01-28 22:41:08:418,-0.257767,0.043655,-0.107147,-1.143402,1.347183,9.141129
2019-01-28 22:41:08:418,-0.257767,0.043655,-0.107147,-1.464035,1.473999,9.397156
2019-01-28 22:41:08:418,-0.257767,0.043655,-0.107147,-1.306107,1.670212,9.631653
2019-01-28 22:41:08:418,-0.257767,0.043655,-0.107147,-1.129044,1.746780,9.827866
2019-01-28 22:41:08:418,0.178757,-0.066040,-0.113861,-1.129044,1.746780,9.827866
2019-01-28 22:41:08:418,0.178757,-0.066040,-0.113861,-1.102722,1.808990,9.435440
2019-01-28 22:41:08:418,0.178757,-0.066040,-0.113861,-0.791656,1.883179,9.334946
2019-01-28 22:41:08:418,0.178757,-0.066040,-0.113861,-0.595444,1.698929,9.385193
2019-01-28 22:41:08:418,0.178757,-0.066040,-0.113861,-0.447083,1.536209,8.882706
2019-01-28 22:41:08:418,0.178757,-0.066040,-0.113861,-0.389664,1.445282,8.913803
2019-01-28 22:41:08:418,0.178757,-0.066040,-0.113861,-0.179092,1.354355,9.602936
2019-01-28 22:41:08:418,0.178757,-0.066040,-0.113861,-0.179092,1.354355,9.602936
2019-01-28 22:41:08:418,0.178757,-0.066040,-0.113861,-0.688766,1.253876,9.511429
2019-01-28 22:41:08:418,0.178757,-0.066040,-0.113861,-0.851471,1.061234,10.004944
2019-01-28 22:41:08:418,0.178757,-0.066040,-0.113861,-0.524857,0.830338,11.478912
2019-01-28 22:41:08:418,0.178757,-0.066040,-0.113861,-0.045090,1.008606,12.168045
2019-01-28 22:41:08:418,0.178757,-0.066040,-0.113861,0.244446,1.383087,11.738541
2019-01-28 22:41:08:418,0.178757,-0.066040,-0.113861,0.068558,1.622360,11.389191
2019-01-28 22:41:08:418,0.178757,-0.066040,-0.113861,0.129593,1.786270,10.993179
2019-01-28 22:41:08:418,0.178757,-0.066040,-0.113861,-0.110901,1.779083,10.351898
2019-01-28 22:41:08:418,-0.305893,-0.086136,0.308167,-0.110901,1.779083,10.351898
2019-01-28 22:41:08:418,-0.305893,-0.086136,0.308167,0.064972,1.715683,10.061157
2019-01-28 22:41:08:418,-0.305893,-0.086136,0.308167,0.143936,1.734818,9.299057
2019-01-28 22:41:08:418,-0.305893,-0.086136,0.308167,0.008743,1.597244,8.591980
2019-01-28 22:41:08:418,-0.305893,-0.086136,0.308167,-0.149185,1.347183,8.355087
2019-01-28 22:41:08:418,-0.305893,-0.086136,0.308167,0.039856,1.010986,8.715210
2019-01-28 22:41:08:418,-0.305893,-0.086136,0.308167,0.435867,0.898529,8.912613
2019-01-28 22:41:08:418,-0.305893,-0.086136,0.308167,0.578247,0.798035,9.314606
2019-01-28 22:41:08:418,-0.305893,-0.086136,0.308167,0.519623,0.967926,9.269150
2019-01-28 22:41:08:418,-0.305893,-0.086136,0.308167,0.483719,1.081589,9.581406
2019-01-28 22:41:09:419,0.094086,-0.072388,0.188187,0.483719,1.081589,9.581406
2019-01-28 22:41:09:419,0.094086,-0.072388,0.188187,0.370071,1.233536,9.917603
2019-01-28 22:41:09:419,0.094086,-0.072388,0.188187,0.410736,1.379486,10.385391
2019-01-28 22:41:09:419,0.094086,-0.072388,0.188187,0.528000,1.676193,10.278915
2019-01-28 22:41:09:419,0.094086,-0.072388,0.188187,0.062592,1.727646,9.921188
2019-01-28 22:41:09:419,0.094086,-0.072388,0.188187,0.006363,1.579300,9.583801
2019-01-28 22:41:09:419,0.094086,-0.072388,0.188187,0.061386,1.280197,9.331360
2019-01-28 22:41:09:419,0.094086,-0.072388,0.188187,0.096085,1.194046,9.110016
2019-01-28 22:41:09:419,0.094086,-0.072388,0.188187,-0.069031,1.227539,8.999954
2019-01-28 22:41:09:419,0.094086,-0.072388,0.188187,-0.136017,1.278992,9.025085
2019-01-28 22:41:09:419,0.094086,-0.072388,0.188187,-0.092957,1.336426,9.290680
2019-01-28 22:41:09:419,0.006180,-0.084610,-0.056381,-0.092957,1.336426,9.290680
2019-01-28 22:41:09:419,0.006180,-0.084610,-0.056381,0.120010,1.458450,9.421082
2019-01-28 22:41:09:419,0.006180,-0.084610,-0.056381,0.183426,1.533829,9.405533
2019-01-28 22:41:09:419,0.006180,-0.084610,-0.056381,0.011139,1.525452,9.823090
2019-01-28 22:41:09:419,0.006180,-0.084610,-0.056381,-0.124054,1.487167,10.160461
2019-01-28 22:41:09:419,0.006180,-0.084610,-0.056381,-0.134827,1.482376,9.949905
2019-01-28 22:41:09:419,0.006180,-0.084610,-0.056381,-0.025955,1.251465,9.967850
2019-01-28 22:41:09:419,0.006180,-0.084610,-0.056381,0.288712,1.079193,9.844620
2019-01-28 22:41:09:419,0.006180,-0.084610,-0.056381,0.348526,0.890152,9.619690
2019-01-28 22:41:09:419,0.006180,-0.084610,-0.056381,0.472946,0.735825,9.244019
2019-01-28 22:41:09:419,-0.031189,-0.055161,0.077820,0.472946,0.735825,9.244019
2019-01-28 22:41:09:419,-0.031189,-0.055161,0.077820,0.542343,0.710693,9.094467
2019-01-28 22:41:09:419,-0.031189,-0.055161,0.077820,0.744537,0.849472,9.010712
2019-01-28 22:41:09:419,-0.031189,-0.055161,0.077820,0.790009,1.093552,8.943726
2019-01-28 22:41:09:419,-0.031189,-0.055161,0.077820,0.611740,1.162933,9.242813
2019-01-28 22:41:09:419,-0.031189,-0.055161,0.077820,0.514832,1.074402,9.693863
2019-01-28 22:41:09:419,-0.031189,-0.055161,0.077820,0.562683,0.978683,9.855392
2019-01-28 22:41:09:419,-0.031189,-0.055161,0.077820,0.756500,0.808792,9.642426
2019-01-28 22:41:09:419,-0.031189,-0.055161,0.077820,0.854614,0.658051,9.819504
2019-01-28 22:41:09:419,-0.031189,-0.055161,0.077820,0.764877,0.637711,10.257385
2019-01-28 22:41:09:419,-0.031189,-0.055161,0.077820,0.667969,0.764526,10.396164
2019-01-28 22:41:09:419,-0.139740,0.000412,-0.036224,0.667969,0.764526,10.396164
2019-01-28 22:41:09:419,-0.139740,0.000412,-0.036224,0.427490,0.878189,10.406937
2019-01-28 22:41:09:419,-0.139740,0.000412,-0.036224,0.336563,1.067230,10.639038
2019-01-28 22:41:09:419,-0.139740,0.000412,-0.036224,0.319809,1.257462,10.562469
2019-01-28 22:41:09:419,-0.139740,0.000412,-0.036224,0.456207,1.398621,9.848206
2019-01-28 22:41:09:419,-0.139740,0.000412,-0.036224,0.432281,1.401031,9.215302
2019-01-28 22:41:09:419,-0.139740,0.000412,-0.036224,0.237259,1.421371,9.065750
2019-01-28 22:41:09:419,-0.139740,0.000412,-0.036224,0.057800,1.477585,9.253586
2019-01-28 22:41:09:419,-0.139740,0.000412,-0.036224,-0.116882,1.508698,9.228470
2019-01-28 22:41:09:419,-0.139740,0.000412,-0.036224,-0.176712,1.347183,9.510818
2019-01-28 22:41:09:419,0.071732,0.093140,-0.106354,-0.176712,1.347183,9.510818
2019-01-28 22:41:09:419,0.071732,0.093140,-0.106354,-0.110901,1.343597,9.821884
2019-01-28 22:41:09:419,0.071732,0.093140,-0.106354,-0.039124,1.421371,9.983398
2019-01-28 22:41:09:419,0.071732,0.093140,-0.106354,0.041046,1.500336,9.910416
2019-01-28 22:41:09:419,0.071732,0.093140,-0.106354,0.274353,1.524261,9.765656
2019-01-28 22:41:09:419,0.071732,0.093140,-0.106354,0.310242,1.551773,9.919998
2019-01-28 22:41:09:419,0.071732,0.093140,-0.106354,0.201370,1.509903,9.928375
2019-01-28 22:41:09:419,0.071732,0.093140,-0.106354,0.140350,1.521866,9.543121
2019-01-28 22:41:09:419,0.071732,0.093140,-0.106354,0.015930,1.515869,9.241623
2019-01-28 22:41:09:419,0.071732,0.093140,-0.106354,0.068558,1.539810,8.980804
2019-01-28 22:41:09:419,0.023773,-0.035736,0.069626,0.068558,1.539810,8.980804
2019-01-28 22:41:09:419,0.023773,-0.035736,0.069626,-0.039108,1.556549,8.806137
2019-01-28 22:41:09:419,0.023773,-0.035736,0.069626,0.020706,1.536209,9.054993
2019-01-28 22:41:09:419,0.023773,-0.035736,0.069626,0.283920,1.387863,9.495255
2019-01-28 22:41:09:419,0.023773,-0.035736,0.069626,0.469360,1.320862,9.811111
2019-01-28 22:41:09:419,0.023773,-0.035736,0.069626,0.341339,1.277786,10.357880
2019-01-28 22:41:09:419,0.023773,-0.035736,0.069626,0.352112,1.305313,10.513412
2019-01-28 22:41:09:419,0.023773,-0.035736,0.069626,0.466965,1.374710,10.259781
2019-01-28 22:41:09:419,0.023773,-0.035736,0.069626,0.492096,1.536224,9.825470
2019-01-28 22:41:09:419,0.023773,-0.035736,0.069626,0.495682,1.804214,9.357681
2019-01-28 22:41:09:419,0.023773,-0.035736,0.069626,0.347321,2.038712,9.034637
2019-01-28 22:41:10:4110,0.115524,-0.039047,0.040985,0.347321,2.038712,9.034637
2019-01-28 22:41:10:4110,0.115524,-0.039047,0.040985,0.533966,2.047089,8.792969
2019-01-28 22:41:10:4110,0.115524,-0.039047,0.040985,0.573456,1.923859,8.830063
2019-01-28 22:41:10:4110,0.115524,-0.039047,0.040985,0.554306,1.763535,9.285889
2019-01-28 22:41:10:4110,0.115524,-0.039047,0.040985,0.403564,1.757553,9.583801
2019-01-28 22:41:10:4110,0.115524,-0.039047,0.040985,0.173859,1.880783,9.790771
2019-01-28 22:41:10:4110,0.115524,-0.039047,0.040985,0.184616,1.765930,9.841019
2019-01-28 22:41:10:4110,0.115524,-0.039047,0.040985,0.225296,1.412979,10.314804
2019-01-28 22:41:10:4110,0.115524,-0.039047,0.040985,0.421509,1.241898,10.807724
2019-01-28 22:41:10:4110,0.115524,-0.039047,0.040985,0.157104,1.645096,10.618698
2019-01-28 22:41:10:4110,0.076920,0.061005,-0.074463,0.157104,1.645096,10.618698
2019-01-28 22:41:10:4110,0.076920,0.061005,-0.074463,-0.191055,2.065033,9.760880
2019-01-28 22:41:10:4110,0.076920,0.061005,-0.074463,-0.386078,2.155960,9.151886
2019-01-28 22:41:10:4110,0.076920,0.061005,-0.074463,-0.226959,2.008804,9.479706
2019-01-28 22:41:10:4110,0.076920,0.061005,-0.074463,0.277939,1.797043,9.748901
2019-01-28 22:41:10:4110,0.076920,0.061005,-0.074463,0.512436,1.649872,9.981003
2019-01-28 22:41:10:4110,0.076920,0.061005,-0.074463,0.493301,1.533829,9.947510
2019-01-28 22:41:10:4110,0.076920,0.061005,-0.074463,0.347336,1.529037,9.655579
2019-01-28 22:41:10:4110,0.076920,0.061005,-0.074463,0.181030,1.758743,9.333740
2019-01-28 22:41:10:4110,0.076920,0.061005,-0.074463,-0.305908,2.245682,8.812119
2019-01-28 22:41:10:4110,0.076920,0.061005,-0.074463,-0.780899,2.455063,8.568039
2019-01-28 22:41:10:4110,0.045227,0.036331,-0.016495,-0.780899,2.455063,8.568039
2019-01-28 22:41:10:4110,0.045227,0.036331,-0.016495,-0.767731,2.361740,8.563263
2019-01-28 22:41:10:4110,0.045227,0.036331,-0.016495,-0.466232,2.087769,9.315796
2019-01-28 22:41:10:4110,0.045227,0.036331,-0.016495,-0.169525,2.148788,9.830261
2019-01-28 22:41:10:4110,0.045227,0.036331,-0.016495,-0.524857,2.532822,10.107834
2019-01-28 22:41:10:4110,0.045227,0.036331,-0.016495,-0.308304,2.467026,9.742920
2019-01-28 22:41:10:4110,0.045227,0.036331,-0.016495,0.012344,2.073410,9.817093
2019-01-28 22:41:10:4110,0.045227,0.036331,-0.016495,0.388016,1.975296,9.720184
2019-01-28 22:41:10:4110,0.045227,0.036331,-0.016495,-0.013992,2.329437,9.118393
2019-01-28 22:41:10:4110,0.045227,0.036331,-0.016495,-0.097748,2.590256,8.368256
2019-01-28 22:41:10:4110,-0.175354,-0.067993,0.120209,-0.097748,2.590256,8.368256
2019-01-28 22:41:10:4110,-0.175354,-0.067993,0.120209,-0.084579,2.480179,8.261765
2019-01-28 22:41:10:4110,-0.175354,-0.067993,0.120209,0.422714,2.140411,8.944916
2019-01-28 22:41:10:4110,-0.175354,-0.067993,0.120209,0.481323,2.000427,9.911606
2019-01-28 22:41:10:4110,-0.175354,-0.067993,0.120209,0.639252,1.804214,10.412918
2019-01-28 22:41:10:4110,-0.175354,-0.067993,0.120209,0.736160,1.642700,10.252594
2019-01-28 22:41:10:4110,-0.175354,-0.067993,0.120209,0.677536,1.597229,10.381805
2019-01-28 22:41:10:4110,-0.175354,-0.067993,0.120209,0.596191,1.591263,10.398560
2019-01-28 22:41:10:4110,-0.175354,-0.067993,0.120209,0.457397,1.444092,10.318390
2019-01-28 22:41:10:4110,-0.175354,-0.067993,0.120209,0.510040,1.289764,9.903244
2019-01-28 22:41:10:4110,-0.175354,-0.067993,0.120209,0.388000,1.204819,9.704636
2019-01-28 22:41:10:4110,-0.112549,-0.052841,0.038544,0.388000,1.204819,9.704636
2019-01-28 22:41:10:4110,-0.112549,-0.052841,0.038544,0.257599,0.969116,9.220093
2019-01-28 22:41:10:4110,-0.112549,-0.052841,0.038544,0.310242,0.770508,9.483307
2019-01-28 22:41:10:4110,-0.112549,-0.052841,0.038544,0.415527,0.587463,9.771637
2019-01-28 22:41:10:4110,-0.112549,-0.052841,0.038544,0.079330,0.233322,10.024078
2019-01-28 22:41:10:4110,-0.112549,-0.052841,0.038544,0.130783,-0.064590,10.043213
2019-01-28 22:41:10:4110,-0.112549,-0.052841,0.038544,0.935974,0.037109,10.104233
2019-01-28 22:41:10:4110,-0.112549,-0.052841,0.038544,1.584427,0.728638,9.818298
2019-01-28 22:41:10:4110,-0.112549,-0.052841,0.038544,0.827087,1.584076,9.653183
2019-01-28 22:41:10:4110,-0.112549,-0.052841,0.038544,0.032669,1.978882,9.649597
2019-01-28 22:41:11:4111,-0.077682,0.087326,-0.162125,0.032669,1.978882,9.649597
2019-01-28 22:41:11:4111,-0.077682,0.087326,-0.162125,-0.080994,2.123657,9.287094
2019-01-28 22:41:11:4111,-0.077682,0.087326,-0.162125,-0.004425,2.288757,8.883896
2019-01-28 22:41:11:4111,-0.077682,0.087326,-0.162125,0.014725,1.593643,9.354080
2019-01-28 22:41:11:4111,-0.077682,0.087326,-0.162125,0.504059,1.262238,9.698654
2019-01-28 22:41:11:4111,-0.077682,0.087326,-0.162125,-0.035522,1.482376,9.669937
2019-01-28 22:41:11:4111,-0.077682,0.087326,-0.162125,-0.497345,1.466827,9.150696
2019-01-28 22:41:11:4111,-0.077682,0.087326,-0.162125,-0.498535,1.051682,9.575424
2019-01-28 22:41:11:4111,-0.077682,0.087326,-0.162125,-0.204224,0.600616,10.567245
2019-01-28 22:41:11:4111,-0.077682,0.087326,-0.162125,-0.133636,0.418762,11.328171
2019-01-28 22:41:11:4111,-0.072433,0.006393,-0.019241,-0.133636,0.418762,11.328171
2019-01-28 22:41:11:4111,-0.072433,0.006393,-0.019241,-0.027145,0.436722,11.506439
2019-01-28 22:41:11:4111,-0.072433,0.006393,-0.019241,-0.077408,0.704712,10.989578
2019-01-28 22:41:11:4111,-0.072433,0.006393,-0.019241,-0.201828,1.076797,9.955887
2019-01-28 22:41:11:4111,-0.072433,0.006393,-0.019241,-0.214981,0.850677,9.110016
2019-01-28 22:41:11:4111,-0.072433,0.006393,-0.019241,0.175049,0.324249,8.662567
2019-01-28 22:41:11:4111,-0.072433,0.006393,-0.019241,0.221710,0.198639,8.461563
2019-01-28 22:41:11:4111,-0.072433,0.006393,-0.019241,-0.092957,0.618576,8.047607
2019-01-28 22:41:11:4111,-0.072433,0.006393,-0.019241,-0.259262,0.977493,7.304642
2019-01-28 22:41:11:4111,-0.072433,0.006393,-0.019241,-0.303528,0.654465,6.696854
2019-01-28 22:41:11:4111,-0.072433,0.006393,-0.019241,0.133179,0.384079,7.439835
2019-01-28 22:41:11:4111,-0.144211,-0.048935,0.142258,0.133179,0.384079,7.439835
2019-01-28 22:41:11:4111,-0.144211,-0.048935,0.142258,0.185806,0.288361,8.917389
2019-01-28 22:41:11:4111,-0.144211,-0.048935,0.142258,0.226486,0.033524,9.768051
2019-01-28 22:41:11:4111,-0.144211,-0.048935,0.142258,0.476547,-0.356506,10.745514
2019-01-28 22:41:11:4111,-0.144211,-0.048935,0.142258,0.441849,-0.327789,11.731354
2019-01-28 22:41:11:4111,-0.144211,-0.048935,0.142258,0.074554,0.348175,11.873734
2019-01-28 22:41:11:4111,-0.144211,-0.048935,0.142258,-0.151581,1.028946,11.307831
2019-01-28 22:41:11:4111,-0.144211,-0.048935,0.142258,-0.137222,1.372314,10.457184
2019-01-28 22:41:11:4111,-0.144211,-0.048935,0.142258,-0.310699,1.460846,9.413910
2019-01-28 22:41:11:4111,-0.144211,-0.048935,0.142258,-0.322662,1.253860,8.792969
2019-01-28 22:41:11:4111,-0.144211,-0.048935,0.142258,0.006363,0.692749,9.087296
2019-01-28 22:41:11:4111,-0.144211,-0.048935,0.142258,0.324600,0.488159,9.610123
2019-01-28 22:41:11:4111,-0.144211,-0.048935,0.142258,0.079330,0.958344,9.312210
2019-01-28 22:41:11:4111,-0.144211,-0.048935,0.142258,-0.254471,1.448883,9.174622
2019-01-28 22:41:11:4111,-0.144211,-0.048935,0.142258,-0.197052,1.669022,9.343323
2019-01-28 22:41:11:4111,-0.144211,-0.048935,0.142258,-0.055862,1.643890,9.573029
2019-01-28 22:41:11:4111,-0.144211,-0.048935,0.142258,0.002762,1.277786,10.198761
2019-01-28 22:41:11:4111,-0.144211,-0.048935,0.142258,0.184616,0.918869,11.366455
2019-01-28 22:41:11:4111,0.129822,0.066742,0.057480,0.184616,0.918869,11.366455
2019-01-28 22:41:11:4111,0.129822,0.066742,0.057480,0.330582,0.689163,11.946716
2019-01-28 22:41:11:4111,0.129822,0.066742,0.057480,0.157104,1.067230,11.926376
2019-01-28 22:41:11:4111,0.129822,0.066742,0.057480,-0.155167,1.751572,11.172638
2019-01-28 22:41:11:4111,0.129822,0.066742,0.057480,-0.304718,1.982483,9.791977
2019-01-28 22:41:11:4111,0.129822,0.066742,0.057480,-0.322662,2.354568,8.864761
2019-01-28 22:41:11:4111,0.129822,0.066742,0.057480,-0.218582,2.542404,8.468750
2019-01-28 22:41:11:4111,0.129822,0.066742,0.057480,-0.000839,1.785065,8.425674
2019-01-28 22:41:11:4111,0.129822,0.066742,0.057480,0.549530,1.044495,9.260773
2019-01-28 22:41:11:4111,0.129822,0.066742,0.057480,0.203766,1.395050,10.007339
2019-01-28 22:41:11:4111,0.129822,0.066742,0.057480,-0.390869,1.792252,9.659180
2019-01-28 22:41:11:4111,0.352051,0.045853,0.120026,-0.390869,1.792252,9.659180
2019-01-28 22:41:11:4111,0.352051,0.045853,0.120026,0.102066,1.304108,8.301239
2019-01-28 22:41:11:4111,0.352051,0.045853,0.120026,0.067368,1.316086,8.246216
2019-01-28 22:41:11:4111,0.352051,0.045853,0.120026,-0.697144,1.934631,8.222290
2019-01-28 22:41:11:4111,0.352051,0.045853,0.120026,-0.809601,2.267227,7.385986
2019-01-28 22:41:11:4111,0.352051,0.045853,0.120026,-0.274811,1.782684,7.382401
2019-01-28 22:41:11:4111,0.352051,0.045853,0.120026,-0.030746,0.987061,9.392380
2019-01-28 22:41:11:4111,0.352051,0.045853,0.120026,0.058990,0.495346,11.859375
2019-01-28 22:41:11:4111,0.352051,0.045853,0.120026,0.215729,0.683182,12.621490
2019-01-28 22:41:11:4111,0.352051,0.045853,0.120026,-0.356171,1.452469,11.937149
2019-01-28 22:41:12:4112,-0.143661,0.023193,0.057724,-0.356171,1.452469,11.937149
2019-01-28 22:41:12:4112,-0.143661,0.023193,0.057724,-0.856262,2.036316,10.695267
2019-01-28 22:41:12:4112,-0.143661,0.023193,0.057724,-0.612198,2.124847,9.790771
2019-01-28 22:41:12:4112,-0.143661,0.023193,0.057724,-0.413589,2.496933,9.894867
2019-01-28 22:41:12:4112,-0.143661,0.023193,0.057724,-0.189865,2.757751,9.606537
2019-01-28 22:41:12:4112,-0.143661,0.023193,0.057724,0.286316,1.582886,9.026276
2019-01-28 22:41:12:4112,-0.143661,0.023193,0.057724,0.727783,0.660446,9.488083
2019-01-28 22:41:12:4112,-0.143661,0.023193,0.057724,0.827087,1.048080,10.775421
2019-01-28 22:41:12:4112,-0.143661,0.023193,0.057724,0.413132,1.738419,10.749100
2019-01-28 22:41:12:4112,-0.143661,0.023193,0.057724,0.584229,1.688156,10.275330
2019-01-28 22:41:12:4112,0.153214,-0.019745,0.093216,0.584229,1.688156,10.275330
2019-01-28 22:41:12:4112,0.153214,-0.019745,0.093216,0.460999,1.902328,10.295670
2019-01-28 22:41:12:4112,0.153214,-0.019745,0.093216,-0.475800,2.711105,10.166458
2019-01-28 22:41:12:4112,0.153214,-0.019745,0.093216,-0.816788,2.799637,9.121979
2019-01-28 22:41:12:4112,0.153214,-0.019745,0.093216,0.019516,1.846085,8.316803
2019-01-28 22:41:12:4112,0.153214,-0.019745,0.093216,0.273163,1.544586,9.127960
2019-01-28 22:41:12:4112,0.153214,-0.019745,0.093216,-0.152771,1.707306,10.217896
2019-01-28 22:41:12:4112,0.153214,-0.019745,0.093216,0.092499,1.005005,10.225082
2019-01-28 22:41:12:4112,0.153214,-0.019745,0.093216,0.343750,0.671204,10.423676
2019-01-28 22:41:12:4112,0.153214,-0.019745,0.093216,-0.533234,1.721664,10.716797
2019-01-28 22:41:12:4112,0.153214,-0.019745,0.093216,-1.208008,2.766129,9.145905
2019-01-28 22:41:12:4112,0.166107,0.183182,-0.022125,-1.208008,2.766129,9.145905
2019-01-28 22:41:12:4112,0.166107,0.183182,-0.022125,-0.791656,2.882187,6.956482
2019-01-28 22:41:12:4112,0.166107,0.183182,-0.022125,-0.450684,2.790054,6.815308
2019-01-28 22:41:12:4112,0.166107,0.183182,-0.022125,-0.466232,2.599823,7.718597
2019-01-28 22:41:12:4112,0.166107,0.183182,-0.022125,-0.003220,1.988464,8.079910
2019-01-28 22:41:12:4112,0.166107,0.183182,-0.022125,0.225296,1.561340,9.090881
2019-01-28 22:41:12:4112,0.166107,0.183182,-0.022125,0.366470,1.777893,10.470337
2019-01-28 22:41:12:4112,0.166107,0.183182,-0.022125,0.270767,1.942993,11.114014
2019-01-28 22:41:12:4112,0.166107,0.183182,-0.022125,0.270767,2.081772,11.249207
2019-01-28 22:41:12:4112,0.166107,0.183182,-0.022125,0.233673,2.446686,11.380814
2019-01-28 22:41:12:4112,-0.322876,-0.129150,0.013321,0.233673,2.446686,11.380814
2019-01-28 22:41:12:4112,-0.322876,-0.129150,0.013321,-0.031937,2.468216,11.560272
2019-01-28 22:41:12:4112,-0.322876,-0.129150,0.013321,-0.147995,2.441895,11.880905
2019-01-28 22:41:12:4112,-0.322876,-0.129150,0.013321,-0.047485,1.865234,12.267349
2019-01-28 22:41:12:4112,-0.322876,-0.129150,0.013321,0.480133,0.788467,12.531754
2019-01-28 22:41:12:4112,-0.322876,-0.129150,0.013321,0.112839,1.165329,13.238831
2019-01-28 22:41:12:4112,-0.322876,-0.129150,0.013321,-0.005615,1.195236,12.706436
2019-01-28 22:41:12:4112,-0.322876,-0.129150,0.013321,0.870163,0.196243,10.826874
2019-01-28 22:41:12:4112,-0.322876,-0.129150,0.013321,0.559097,0.605408,10.205933
2019-01-28 22:41:12:4112,-0.322876,-0.129150,0.013321,-0.167130,1.619965,9.221283
2019-01-28 22:41:12:4112,-0.322876,-0.129150,0.013321,-0.441116,2.100922,6.767441
2019-01-28 22:41:12:4112,0.087372,-0.045212,-0.080811,-0.441116,2.100922,6.767441
2019-01-28 22:41:12:4112,0.087372,-0.045212,-0.080811,-0.864639,2.390457,5.081711
2019-01-28 22:41:12:4112,0.087372,-0.045212,-0.080811,-1.199646,2.651276,4.721588
2019-01-28 22:41:12:4112,0.087372,-0.045212,-0.080811,-0.579895,2.524460,5.064957
2019-01-28 22:41:12:4112,0.087372,-0.045212,-0.080811,0.209747,2.184677,5.907227
2019-01-28 22:41:12:4112,0.087372,-0.045212,-0.080811,0.208542,1.722855,7.997360
2019-01-28 22:41:12:4112,0.087372,-0.045212,-0.080811,0.585419,1.322067,10.563660
2019-01-28 22:41:12:4112,0.087372,-0.045212,-0.080811,0.880920,1.320862,12.068741
2019-01-28 22:41:12:4112,0.087372,-0.045212,-0.080811,0.937164,0.868622,12.972031
2019-01-28 22:41:12:4112,0.087372,-0.045212,-0.080811,2.153915,-0.723816,13.578613
2019-01-28 22:41:13:4113,0.248093,0.021484,-0.144714,2.153915,-0.723816,13.578613
2019-01-28 22:41:13:4113,0.248093,0.021484,-0.144714,2.320206,-1.396194,13.438629
2019-01-28 22:41:13:4113,0.248093,0.021484,-0.144714,1.254211,-0.130386,11.914413
2019-01-28 22:41:13:4113,0.248093,0.021484,-0.144714,-0.244904,1.585266,8.690079
2019-01-28 22:41:13:4113,0.248093,0.021484,-0.144714,-0.914886,2.532822,4.907028
2019-01-28 22:41:13:4113,0.248093,0.021484,-0.144714,-0.605026,2.597443,3.746506
2019-01-28 22:41:13:4113,0.248093,0.021484,-0.144714,-0.383682,2.384476,4.988388
2019-01-28 22:41:13:4113,0.248093,0.021484,-0.144714,-0.267624,2.312683,6.023285
2019-01-28 22:41:13:4113,0.248093,0.021484,-0.144714,-0.276001,2.415588,6.510223
2019-01-28 22:41:13:4113,0.248093,0.021484,-0.144714,-0.198242,2.450272,7.187393
2019-01-28 22:41:13:4113,0.248093,0.021484,-0.144714,0.075745,2.175110,8.517792
2019-01-28 22:41:13:4113,-0.319519,0.091919,-0.051193,0.075745,2.175110,8.517792
2019-01-28 22:41:13:4113,-0.319519,0.091919,-0.051193,0.568665,1.481186,10.550507
2019-01-28 22:41:13:4113,-0.319519,0.091919,-0.051193,0.740952,0.863831,12.754288
2019-01-28 22:41:13:4113,-0.319519,0.091919,-0.051193,0.723007,0.848282,13.896866
2019-01-28 22:41:13:4113,-0.319519,0.091919,-0.051193,0.164276,1.575699,12.741135
2019-01-28 22:41:13:4113,-0.319519,0.091919,-0.051193,-0.840714,2.772110,10.996765
2019-01-28 22:41:13:4113,-0.319519,0.091919,-0.051193,-1.234329,3.367920,10.113815
2019-01-28 22:41:13:4113,-0.319519,0.091919,-0.051193,-0.465042,2.824753,10.277725
2019-01-28 22:41:13:4113,-0.319519,0.091919,-0.051193,0.847443,1.506317,11.451401
2019-01-28 22:41:13:4113,-0.319519,0.091919,-0.051193,1.766281,0.373306,12.358276
2019-01-28 22:41:13:4113,0.307526,0.126068,-0.289978,1.766281,0.373306,12.358276
2019-01-28 22:41:13:4113,0.307526,0.126068,-0.289978,1.694489,0.502518,11.711029
2019-01-28 22:41:13:4113,0.307526,0.126068,-0.289978,0.516022,1.759949,10.183197
2019-01-28 22:41:13:4113,0.307526,0.126068,-0.289978,-0.086975,2.494537,7.938736
2019-01-28 22:41:13:4113,0.307526,0.126068,-0.289978,0.459793,2.354568,5.995758
2019-01-28 22:41:13:4113,0.307526,0.126068,-0.289978,0.389206,2.366531,5.837845
2019-01-28 22:41:13:4113,0.307526,0.126068,-0.289978,0.249222,2.396439,7.319000
2019-01-28 22:41:13:4113,0.307526,0.126068,-0.289978,0.701462,1.986069,7.955490
2019-01-28 22:41:13:4113,0.307526,0.126068,-0.289978,0.346130,1.654663,9.089691
2019-01-28 22:41:13:4113,0.307526,0.126068,-0.289978,-0.447098,1.728836,11.268356
2019-01-28 22:41:13:4113,0.008011,0.070724,-0.278976,-0.447098,1.728836,11.268356
2019-01-28 22:41:13:4113,0.008011,0.070724,-0.278976,-0.916092,2.014786,12.308029
2019-01-28 22:41:13:4113,0.008011,0.070724,-0.278976,-1.351578,2.628540,11.818695
2019-01-28 22:41:13:4113,0.008011,0.070724,-0.278976,-1.893555,3.421768,11.253998
2019-01-28 22:41:13:4113,0.008011,0.070724,-0.278976,-1.315689,3.305710,9.929565
2019-01-28 22:41:13:4113,0.008011,0.070724,-0.278976,-0.547592,2.633331,9.002350
2019-01-28 22:41:13:4113,0.008011,0.070724,-0.278976,-0.179092,1.959747,9.106430
2019-01-28 22:41:13:4113,0.008011,0.070724,-0.278976,-0.090561,1.929840,9.471329
2019-01-28 22:41:13:4113,0.008011,0.070724,-0.278976,-0.140808,1.726440,9.550308
2019-01-28 22:41:13:4113,0.008011,0.070724,-0.278976,0.135559,1.403412,9.111221
2019-01-28 22:41:13:4113,0.008011,0.070724,-0.278976,-0.250885,1.891556,8.850403
2019-01-28 22:41:13:4113,-0.115677,-0.080948,-0.290405,-0.250885,1.891556,8.850403
2019-01-28 22:41:13:4113,-0.115677,-0.080948,-0.290405,-0.910110,2.950378,8.802551
2019-01-28 22:41:13:4113,-0.115677,-0.080948,-0.290405,-1.199631,3.495941,7.786789
2019-01-28 22:41:13:4113,-0.115677,-0.080948,-0.290405,-0.450684,3.419373,6.357086
2019-01-28 22:41:13:4113,-0.115677,-0.080948,-0.290405,0.306656,2.724258,6.348694
2019-01-28 22:41:13:4113,-0.115677,-0.080948,-0.290405,0.618927,1.939407,8.020096
2019-01-28 22:41:13:4113,-0.115677,-0.080948,-0.290405,0.280334,1.478790,9.757278
2019-01-28 22:41:13:4113,-0.115677,-0.080948,-0.290405,0.171463,1.416580,10.679718
2019-01-28 22:41:13:4113,-0.115677,-0.080948,-0.290405,-0.084579,1.640305,11.240829
2019-01-28 22:41:13:4113,-0.115677,-0.080948,-0.290405,-0.133636,1.671417,11.949112
2019-01-28 22:41:13:4113,0.094940,-0.252045,-0.281845,-0.133636,1.671417,11.949112
2019-01-28 22:41:13:4113,0.094940,-0.252045,-0.281845,-0.191071,1.234726,12.927765
2019-01-28 22:41:13:4113,0.094940,-0.252045,-0.281845,0.197784,0.508499,13.534348
2019-01-28 22:41:13:4113,0.094940,-0.252045,-0.281845,0.505249,0.282379,12.700455
2019-01-28 22:41:13:4113,0.094940,-0.252045,-0.281845,-0.084579,1.155762,10.702454
2019-01-28 22:41:13:4113,0.094940,-0.252045,-0.281845,-0.618179,2.114075,8.036835
2019-01-28 22:41:13:4113,0.094940,-0.252045,-0.281845,-0.278397,2.666824,5.102051
2019-01-28 22:41:13:4113,0.094940,-0.252045,-0.281845,-0.415985,3.147781,4.477509
2019-01-28 22:41:13:4113,0.094940,-0.252045,-0.281845,-0.676804,2.659653,6.453995
2019-01-28 22:41:13:4113,0.094940,-0.252045,-0.281845,0.177444,1.219162,8.268936
2019-01-28 22:41:13:4113,0.094940,-0.252045,-0.281845,0.578232,0.174698,9.613708
2019-01-28 22:41:14:4114,-0.038406,-0.108688,-0.005081,0.578232,0.174698,9.613708
2019-01-28 22:41:14:4114,-0.038406,-0.108688,-0.005081,0.007553,0.857849,10.186783
2019-01-28 22:41:14:4114,-0.038406,-0.108688,-0.005081,-1.083588,2.305511,9.052597
2019-01-28 22:41:14:4114,-0.038406,-0.108688,-0.005081,-1.581284,3.395432,7.296265
2019-01-28 22:41:14:4114,-0.038406,-0.108688,-0.005081,-1.620773,3.239914,7.189774
2019-01-28 22:41:14:4114,-0.038406,-0.108688,-0.005081,-1.324066,2.227737,9.520386
2019-01-28 22:41:14:4114,-0.038406,-0.108688,-0.005081,-0.813187,1.109100,11.396362
2019-01-28 22:41:14:4114,-0.038406,-0.108688,-0.005081,-0.419586,0.894943,11.834244
2019-01-28 22:41:14:4114,-0.038406,-0.108688,-0.005081,-1.148193,2.086563,10.860367
2019-01-28 22:41:14:4114,-0.038406,-0.108688,-0.005081,-1.414993,2.869019,9.765656
2019-01-28 22:41:14:4114,0.208023,-0.115402,0.162231,-1.414993,2.869019,9.765656
2019-01-28 22:41:14:4114,0.208023,-0.115402,0.162231,-0.548798,1.843689,10.393768
2019-01-28 22:41:14:4114,0.208023,-0.115402,0.162231,0.094894,0.713089,12.833252
2019-01-28 22:41:14:4114,0.208023,-0.115402,0.162231,0.433472,0.896149,14.775024
2019-01-28 22:41:14:4114,0.208023,-0.115402,0.162231,1.193192,0.508499,14.101456
2019-01-28 22:41:14:4114,0.208023,-0.115402,0.162231,1.343948,0.327835,12.465958
2019-01-28 22:41:14:4114,0.208023,-0.115402,0.162231,-0.121674,1.811386,11.312607
2019-01-28 22:41:14:4114,0.208023,-0.115402,0.162231,-1.228348,3.204010,9.431854
2019-01-28 22:41:14:4114,0.208023,-0.115402,0.162231,-1.239120,3.845291,6.200348
2019-01-28 22:41:14:4114,0.208023,-0.115402,0.162231,-1.638718,4.214981,4.311218
2019-01-28 22:41:14:4114,0.208023,-0.115402,0.162231,-1.626755,3.944595,4.744324
2019-01-28 22:41:14:4114,0.208023,-0.115402,0.162231,0.149918,1.643906,6.256577
2019-01-28 22:41:14:4114,0.208023,-0.115402,0.162231,1.233871,-0.297882,9.159073
2019-01-28 22:41:14:4114,0.208023,-0.115402,0.162231,0.934769,-0.313446,12.652588
2019-01-28 22:41:14:4114,0.208023,-0.115402,0.162231,0.517227,1.435715,12.080704
2019-01-28 22:41:14:4114,0.208023,-0.115402,0.162231,0.361694,1.787460,9.552689
2019-01-28 22:41:14:4114,0.208023,-0.115402,0.162231,0.404755,1.518265,10.461975
2019-01-28 22:41:14:4114,0.208023,-0.115402,0.162231,-1.295349,2.939606,12.316406
2019-01-28 22:41:14:4114,0.208023,-0.115402,0.162231,-2.078995,4.220963,12.468338
2019-01-28 22:41:14:4114,0.208023,-0.115402,0.162231,0.490906,1.208405,11.573441
2019-01-28 22:41:14:4114,-0.498871,-0.295242,0.579575,0.490906,1.208405,11.573441
2019-01-28 22:41:14:4114,-0.498871,-0.295242,0.579575,2.736557,-2.724213,12.644226
2019-01-28 22:41:14:4114,-0.498871,-0.295242,0.579575,2.878937,-3.293701,14.952087
2019-01-28 22:41:14:4114,-0.498871,-0.295242,0.579575,1.499466,-1.379440,12.451599
2019-01-28 22:41:14:4114,-0.498871,-0.295242,0.579575,-0.432739,1.105515,7.289078
2019-01-28 22:41:14:4114,-0.498871,-0.295242,0.579575,-2.046692,3.388260,2.949707
2019-01-28 22:41:14:4114,-0.498871,-0.295242,0.579575,-2.727448,4.601425,-0.012619
2019-01-28 22:41:14:4114,-0.498871,-0.295242,0.579575,-2.591064,5.383881,-0.992477
2019-01-28 22:41:14:4114,-0.498871,-0.295242,0.579575,-1.930649,4.560745,0.710022
2019-01-28 22:41:14:4114,-0.498871,-0.295242,0.579575,0.836655,1.241898,6.470734
2019-01-28 22:41:14:4114,0.135452,0.415543,0.037628,0.836655,1.241898,6.470734
2019-01-28 22:41:14:4114,0.135452,0.415543,0.037628,1.132172,-2.062592,15.447418
2019-01-28 22:41:14:4114,0.135452,0.415543,0.037628,0.139160,-2.238464,19.950699
2019-01-28 22:41:14:4114,0.135452,0.415543,0.037628,-0.932846,0.156754,14.621887
2019-01-28 22:41:14:4114,0.135452,0.415543,0.037628,-1.578903,2.605804,7.435043
2019-01-28 22:41:14:4114,0.135452,0.415543,0.037628,0.790009,2.274399,6.809326
2019-01-28 22:41:14:4114,0.135452,0.415543,0.037628,1.109451,1.384277,12.333145
2019-01-28 22:41:14:4114,0.135452,0.415543,0.037628,-0.432739,0.378098,17.027878
2019-01-28 22:41:14:4114,0.135452,0.415543,0.037628,0.242050,-1.880737,16.713211
2019-01-28 22:41:14:4114,0.135452,0.415543,0.037628,1.565277,-3.122604,14.106232
2019-01-28 22:41:14:4114,0.135452,0.415543,0.037628,1.416931,-2.414337,11.018295
2019-01-28 22:41:15:4115,0.181259,-0.032028,0.242203,1.416931,-2.414337,11.018295
2019-01-28 22:41:15:4115,0.181259,-0.032028,0.242203,-0.701935,-0.101685,8.008133
2019-01-28 22:41:15:4115,0.181259,-0.032028,0.242203,-3.440506,2.696732,5.348511
2019-01-28 22:41:15:4115,0.181259,-0.032028,0.242203,-4.000427,3.820175,2.426865
2019-01-28 22:41:15:4115,0.181259,-0.032028,0.242203,-2.437927,3.583282,0.419296
2019-01-28 22:41:15:4115,0.181259,-0.032028,0.242203,0.696686,1.907104,3.567047
2019-01-28 22:41:15:4115,0.181259,-0.032028,0.242203,3.548920,-3.595200,21.733353
2019-01-28 22:41:15:4115,0.181259,-0.032028,0.242203,0.837860,-1.916626,14.578827
2019-01-28 22:41:15:4115,0.181259,-0.032028,0.242203,-1.560959,1.068420,7.674332
2019-01-28 22:41:15:4115,0.181259,-0.032028,0.242203,-0.904129,1.942993,8.889877
2019-01-28 22:41:15:4115,0.559570,0.130768,0.053925,-0.904129,1.942993,8.889877
2019-01-28 22:41:15:4115,0.559570,0.130768,0.053925,-1.202026,1.934631,8.765457
2019-01-28 22:41:15:4115,0.559570,0.130768,0.053925,-1.400635,2.272018,8.742722
2019-01-28 22:41:15:4115,0.559570,0.130768,0.053925,-1.491562,2.943192,10.077911
2019-01-28 22:41:15:4115,0.559570,0.130768,0.053925,-1.022568,2.914490,10.305237
2019-01-28 22:41:15:4115,0.559570,0.130768,0.053925,-0.677994,2.123657,9.695068
2019-01-28 22:41:15:4115,0.559570,0.130768,0.053925,-0.169525,1.532639,8.843216
2019-01-28 22:41:15:4115,0.559570,0.130768,0.053925,0.350922,1.092346,8.516602
2019-01-28 22:41:15:4115,0.559570,0.130768,0.053925,0.057800,1.095947,9.369644
2019-01-28 22:41:15:4115,0.559570,0.130768,0.053925,0.030289,1.441696,10.514603
2019-01-28 22:41:15:4115,0.559570,0.130768,0.053925,0.573456,1.149780,10.960876
2019-01-28 22:41:15:4115,0.014252,0.024170,0.126022,0.573456,1.149780,10.960876
2019-01-28 22:41:15:4115,0.014252,0.024170,0.126022,0.701462,0.327835,11.705032
2019-01-28 22:41:15:4115,0.014252,0.024170,0.126022,-0.097748,0.464233,11.981415
2019-01-28 22:41:15:4115,0.014252,0.024170,0.126022,-0.686386,0.655655,11.920395
2019-01-28 22:41:15:4115,0.014252,0.024170,0.126022,-0.411209,0.564728,10.739532
2019-01-28 22:41:15:4115,0.014252,0.024170,0.126022,-0.438721,0.580292,9.389984
2019-01-28 22:41:15:4115,0.014252,0.024170,0.126022,-1.142212,1.355560,9.033447
2019-01-28 22:41:15:4115,0.014252,0.024170,0.126022,-1.657867,2.151169,8.954483
2019-01-28 22:41:15:4115,0.014252,0.024170,0.126022,-1.709305,2.709900,8.514206
2019-01-28 22:41:15:4115,0.014252,0.024170,0.126022,-0.766541,2.350967,7.688675
2019-01-28 22:41:15:4115,0.399887,0.126129,0.083618,-0.766541,2.350967,7.688675
2019-01-28 22:41:15:4115,0.399887,0.126129,0.083618,-0.622971,2.875000,8.272537
2019-01-28 22:41:15:4115,0.399887,0.126129,0.083618,-0.372910,3.686172,8.228271
2019-01-28 22:41:15:4115,0.399887,0.126129,0.083618,0.289902,2.963531,7.010315
2019-01-28 22:41:15:4115,0.399887,0.126129,0.083618,0.360489,2.200226,6.796158
2019-01-28 22:41:15:4115,0.399887,0.126129,0.083618,-0.859848,2.275604,7.357269
2019-01-28 22:41:15:4115,0.399887,0.126129,0.083618,-1.345596,2.580688,7.328568
2019-01-28 22:41:15:4115,0.399887,0.126129,0.083618,-0.656464,2.525650,8.300049
2019-01-28 22:41:15:4115,0.399887,0.126129,0.083618,0.316223,2.196640,9.282303
2019-01-28 22:41:15:4115,0.399887,0.126129,0.083618,0.341354,2.512482,10.743118
2019-01-28 22:41:15:4115,0.399887,0.126129,0.083618,-0.304718,3.596436,12.254196
2019-01-28 22:41:15:4115,-0.652802,0.215790,0.137604,-0.304718,3.596436,12.254196
2019-01-28 22:41:15:4115,-0.652802,0.215790,0.137604,-0.851486,4.053467,12.964859
2019-01-28 22:41:15:4115,-0.652802,0.215790,0.137604,-0.242508,3.102325,12.388184
2019-01-28 22:41:15:4115,-0.652802,0.215790,0.137604,-0.162354,1.009796,12.211121
2019-01-28 22:41:15:4115,-0.652802,0.215790,0.137604,-0.488968,0.500122,13.551102
2019-01-28 22:41:15:4115,-0.652802,0.215790,0.137604,-0.845505,1.143799,12.221878
2019-01-28 22:41:15:4115,-0.652802,0.215790,0.137604,-1.265442,1.762344,10.601944
2019-01-28 22:41:15:4115,-0.652802,0.215790,0.137604,-2.062256,2.045883,9.709427
2019-01-28 22:41:15:4115,-0.652802,0.215790,0.137604,-2.246490,1.854462,9.879303
2019-01-28 22:41:15:4115,-0.652802,0.215790,0.137604,-0.858658,0.997833,9.637634
2019-01-28 22:41:15:4115,-0.141388,0.053253,-0.093216,-0.858658,0.997833,9.637634
2019-01-28 22:41:15:4115,-0.141388,0.053253,-0.093216,0.371262,-0.221313,10.497864
2019-01-28 22:41:15:4115,-0.141388,0.053253,-0.093216,0.414337,-1.201172,10.505035
2019-01-28 22:41:15:4115,-0.141388,0.053253,-0.093216,0.347336,-1.779053,9.890076
2019-01-28 22:41:15:4115,-0.141388,0.053253,-0.093216,-0.157562,-1.256210,7.905243
2019-01-28 22:41:15:4115,-0.141388,0.053253,-0.093216,-0.173111,-0.674759,6.494675
2019-01-28 22:41:15:4115,-0.141388,0.053253,-0.093216,-0.343002,-0.364883,6.235046
2019-01-28 22:41:16:4116,-0.141388,0.053253,-0.093216,-1.135040,0.282379,5.870132
2019-01-28 22:41:16:4116,-0.141388,0.053253,-0.093216,-1.454468,0.561142,6.384598
2019-01-28 22:41:16:4116,-0.141388,0.053253,-0.093216,-1.088364,0.867432,6.609512
2019-01-28 22:41:16:4116,-0.084900,-0.009476,0.045807,-1.088364,0.867432,6.609512
2019-01-28 22:41:16:4116,-0.084900,-0.009476,0.045807,-0.777298,1.452469,6.962463
2019-01-28 22:41:16:4116,-0.084900,-0.009476,0.045807,-0.522461,2.039902,8.684097
2019-01-28 22:41:16:4116,-0.084900,-0.009476,0.045807,-0.060654,2.203812,10.883102
2019-01-28 22:41:16:4116,-0.084900,-0.009476,0.045807,0.167862,1.470413,9.692673
2019-01-28 22:41:16:4116,-0.084900,-0.009476,0.045807,0.047028,-0.124405,9.801544
2019-01-28 22:41:16:4116,-0.084900,-0.009476,0.045807,-0.249680,-0.790802,10.970444
2019-01-28 22:41:16:4116,-0.084900,-0.009476,0.045807,-0.940018,0.232132,10.812515
2019-01-28 22:41:16:4116,-0.084900,-0.009476,0.045807,-1.849289,2.434723,7.945908
2019-01-28 22:41:16:4116,-0.084900,-0.009476,0.045807,-2.423569,4.243698,5.057770
2019-01-28 22:41:16:4116,-0.084900,-0.009476,0.045807,-1.026154,3.316483,5.839035
2019-01-28 22:41:16:4116,-0.273285,-0.123413,0.077515,-1.026154,3.316483,5.839035
2019-01-28 22:41:16:4116,-0.273285,-0.123413,0.077515,0.088898,0.650864,10.932159
2019-01-28 22:41:16:4116,-0.273285,-0.123413,0.077515,-0.308304,-0.930786,18.010132
2019-01-28 22:41:16:4116,-0.273285,-0.123413,0.077515,-0.961548,0.144791,17.383209
2019-01-28 22:41:16:4116,-0.273285,-0.123413,0.077515,-1.085968,2.349777,11.358078
2019-01-28 22:41:16:4116,-0.273285,-0.123413,0.077515,-0.366928,2.744598,9.668747
2019-01-28 22:41:16:4116,-0.273285,-0.123413,0.077515,-0.045105,1.195236,13.080917
2019-01-28 22:41:16:4116,-0.273285,-0.123413,0.077515,-0.862244,-0.183029,14.590790
2019-01-28 22:41:16:4116,-0.273285,-0.123413,0.077515,-1.252274,-0.474960,16.377029
2019-01-28 22:41:16:4116,-0.273285,-0.123413,0.077515,-1.007019,0.162735,13.606125
2019-01-28 22:41:16:4116,0.640991,0.123734,-0.005081,-1.007019,0.162735,13.606125
2019-01-28 22:41:16:4116,0.640991,0.123734,-0.005081,-1.414993,0.991852,7.698257
2019-01-28 22:41:16:4116,0.640991,0.123734,-0.005081,-1.761948,1.996841,1.822678
2019-01-28 22:41:16:4116,0.640991,0.123734,-0.005081,-1.554977,2.147583,-0.091583
2019-01-28 22:41:16:4116,0.640991,0.123734,-0.005081,0.477737,0.741806,4.673721
2019-01-28 22:41:16:4116,0.640991,0.123734,-0.005081,2.910049,-2.050629,16.528976
2019-01-28 22:41:16:4116,0.640991,0.123734,-0.005081,1.335571,-2.072159,15.361267
2019-01-28 22:41:16:4116,0.640991,0.123734,-0.005081,-0.908905,0.278793,7.697067
2019-01-28 22:41:16:4116,0.640991,0.123734,-0.005081,-0.304718,1.259842,8.023682
2019-01-28 22:41:16:4116,0.640991,0.123734,-0.005081,-0.624161,1.580475,8.729553
2019-01-28 22:41:16:4116,0.640991,0.123734,-0.005081,-1.258255,2.074600,8.730759
2019-01-28 22:41:16:4116,-0.128815,-0.037399,0.147141,-1.258255,2.074600,8.730759
2019-01-28 22:41:16:4116,-0.128815,-0.037399,0.147141,-1.379105,2.489761,8.723587
2019-01-28 22:41:16:4116,-0.128815,-0.037399,0.147141,-1.300140,2.626144,8.822876
2019-01-28 22:41:16:4116,-0.128815,-0.037399,0.147141,-1.322861,2.353363,8.120590
2019-01-28 22:41:16:4116,-0.128815,-0.037399,0.147141,-1.141006,1.782669,7.932755
2019-01-28 22:41:16:4116,-0.128815,-0.037399,0.147141,-0.636124,1.301727,8.088287
2019-01-28 22:41:16:4116,-0.128815,-0.037399,0.147141,-0.323868,1.112686,8.682907
2019-01-28 22:41:16:4116,-0.128815,-0.037399,0.147141,0.096085,1.009796,10.083893
2019-01-28 22:41:16:4116,-0.128815,-0.037399,0.147141,0.269562,0.723846,10.629471
2019-01-28 22:41:16:4116,-0.128815,-0.037399,0.147141,0.128387,0.296738,10.170044
2019-01-28 22:41:16:4116,0.831329,0.008286,-0.037567,0.128387,0.296738,10.170044
2019-01-28 22:41:16:4116,0.831329,0.008286,-0.037567,-0.021164,0.015579,10.002548
2019-01-28 22:41:16:4116,0.831329,0.008286,-0.037567,-0.127655,0.244095,10.210724
2019-01-28 22:41:16:4116,0.831329,0.008286,-0.037567,-0.311890,0.908112,9.851791
2019-01-28 22:41:16:4116,0.831329,0.008286,-0.037567,-0.393250,1.521866,10.174820
2019-01-28 22:41:16:4116,0.831329,0.008286,-0.037567,-0.987869,2.714691,10.684494
2019-01-28 22:41:16:4116,0.831329,0.008286,-0.037567,-1.682983,4.169525,10.867554
2019-01-28 22:41:16:4116,0.831329,0.008286,-0.037567,-1.424561,4.917282,10.673737
2019-01-28 22:41:16:4116,0.831329,0.008286,-0.037567,-0.896942,5.076401,10.758682
2019-01-28 22:41:16:4116,0.831329,0.008286,-0.037567,-0.700729,4.308304,10.696457
2019-01-28 22:41:16:4116,0.831329,0.008286,-0.037567,-1.119476,3.671814,10.723984
2019-01-28 22:41:17:4117,0.128723,-0.025909,-0.075150,-1.119476,3.671814,10.723984
2019-01-28 22:41:17:4117,0.128723,-0.025909,-0.075150,-1.121872,3.031723,9.491684
2019-01-28 22:41:17:4117,0.128723,-0.025909,-0.075150,-0.692368,2.053070,9.045410
2019-01-28 22:41:17:4117,0.128723,-0.025909,-0.075150,-0.328659,1.593643,8.521393
2019-01-28 22:41:17:4117,0.128723,-0.025909,-0.075150,0.021912,1.546982,7.807129
2019-01-28 22:41:17:4117,0.128723,-0.025909,-0.075150,0.615326,1.576904,7.880112
2019-01-28 22:41:17:4117,0.128723,-0.025909,-0.075150,0.639252,1.915482,8.006927
2019-01-28 22:41:17:4117,0.128723,-0.025909,-0.075150,0.350922,2.474213,8.296463
2019-01-28 22:41:17:4117,0.128723,-0.025909,-0.075150,0.183426,2.483780,8.560867
2019-01-28 22:41:17:4117,0.128723,-0.025909,-0.075150,-0.030746,2.213394,7.960266
2019-01-28 22:41:17:4117,-0.019531,-0.111801,-0.103729,-0.030746,2.213394,7.960266
2019-01-28 22:41:17:4117,-0.019531,-0.111801,-0.103729,-0.605011,2.068619,8.339539
2019-01-28 22:41:17:4117,-0.019531,-0.111801,-0.103729,-1.470032,2.623764,8.848007
2019-01-28 22:41:17:4117,-0.019531,-0.111801,-0.103729,-1.492752,3.226746,10.088684
2019-01-28 22:41:17:4117,-0.019531,-0.111801,-0.103729,-0.765335,3.890762,11.128357
2019-01-28 22:41:17:4117,-0.019531,-0.111801,-0.103729,-0.308304,4.034332,10.684494
2019-01-28 22:41:17:4117,-0.019531,-0.111801,-0.103729,-0.175507,3.887161,11.159470
2019-01-28 22:41:17:4117,-0.019531,-0.111801,-0.103729,-0.654068,3.637115,11.118790
2019-01-28 22:41:17:4117,-0.019531,-0.111801,-0.103729,-0.614594,3.409790,10.432053
2019-01-28 22:41:17:4117,-0.019531,-0.111801,-0.103729,-0.557159,3.486374,10.227463
2019-01-28 22:41:17:4117,-0.171997,-0.041977,-0.210999,-0.557159,3.486374,10.227463
2019-01-28 22:41:17:4117,-0.171997,-0.041977,-0.210999,-0.591858,3.609604,9.784805
2019-01-28 22:41:17:4117,-0.171997,-0.041977,-0.210999,-0.426758,3.420563,8.918594
2019-01-28 22:41:17:4117,-0.171997,-0.041977,-0.210999,-0.188675,2.963531,8.223480
2019-01-28 22:41:17:4117,-0.171997,-0.041977,-0.210999,-0.131241,2.279190,8.270142
2019-01-28 22:41:17:4117,-0.171997,-0.041977,-0.210999,-0.209015,1.919067,8.601547
2019-01-28 22:41:17:4117,-0.171997,-0.041977,-0.210999,-0.310699,1.921463,8.390976
2019-01-28 22:41:17:4117,-0.171997,-0.041977,-0.210999,-0.220978,1.968124,8.307220
2019-01-28 22:41:17:4117,-0.171997,-0.041977,-0.210999,-0.132431,2.023163,8.685303
2019-01-28 22:41:17:4117,-0.171997,-0.041977,-0.210999,0.001572,2.004013,9.026276
2019-01-28 22:41:17:4117,-0.171997,-0.041977,-0.210999,0.257599,1.987259,8.922180
2019-01-28 22:41:17:4117,-0.171997,-0.041977,-0.210999,0.254013,1.980087,9.419891
2019-01-28 22:41:17:4117,-0.171997,-0.041977,-0.210999,-0.171921,2.312683,9.515610
2019-01-28 22:41:17:4117,-0.171997,-0.041977,-0.210999,-0.198242,2.440704,9.641220
2019-01-28 22:41:17:4117,-0.171997,-0.041977,-0.210999,-0.139618,2.554367,9.839828
2019-01-28 22:41:17:4117,-0.171997,-0.041977,-0.210999,-0.299927,2.681183,9.774033
2019-01-28 22:41:17:4117,-0.171997,-0.041977,-0.210999,-0.297546,2.685974,9.704636
2019-01-28 22:41:17:4117,-0.171997,-0.041977,-0.210999,-0.532043,2.833130,9.590973
2019-01-28 22:41:17:4117,-0.171997,-0.041977,-0.210999,-0.601425,3.165726,9.411514
2019-01-28 22:41:17:4117,-0.171997,-0.041977,-0.210999,-0.431534,3.460052,9.796768
2019-01-28 22:41:17:4117,-0.139435,-0.154617,0.066025,-0.431534,3.460052,9.796768
2019-01-28 22:41:17:4117,-0.139435,-0.154617,0.066025,-0.271225,3.657455,9.675919
2019-01-28 22:41:17:4117,-0.139435,-0.154617,0.066025,-0.443512,4.029541,10.196365
2019-01-28 22:41:17:4117,-0.139435,-0.154617,0.066025,-0.455475,4.131241,10.331558
2019-01-28 22:41:17:4117,-0.139435,-0.154617,0.066025,-0.155167,3.948181,10.025269
2019-01-28 22:41:17:4117,-0.139435,-0.154617,0.066025,-0.114487,3.487564,9.740524
2019-01-28 22:41:17:4117,-0.139435,-0.154617,0.066025,-0.284378,2.959946,9.841019
2019-01-28 22:41:17:4117,-0.139435,-0.154617,0.066025,-0.059448,2.586670,9.632843
2019-01-28 22:41:17:4117,-0.139435,-0.154617,0.066025,0.208542,2.307907,9.404343
2019-01-28 22:41:17:4117,-0.139435,-0.154617,0.066025,0.514832,2.459839,8.575226
2019-01-28 22:41:17:4117,-0.139435,-0.154617,0.066025,0.678741,2.324661,7.650391
2019-01-28 22:41:18:4118,-0.674484,-0.135681,0.263031,0.678741,2.324661,7.650391
2019-01-28 22:41:18:4118,-0.674484,-0.135681,0.263031,0.459793,1.732422,8.109818
2019-01-28 22:41:18:4118,-0.674484,-0.135681,0.263031,0.298279,1.268219,8.259369
2019-01-28 22:41:18:4118,-0.674484,-0.135681,0.263031,0.439453,1.448883,7.638428
2019-01-28 22:41:18:4118,-0.674484,-0.135681,0.263031,0.396378,1.812592,7.397949
2019-01-28 22:41:18:4118,-0.674484,-0.135681,0.263031,0.069763,1.852066,7.813110
2019-01-28 22:41:18:4118,-0.674484,-0.135681,0.263031,0.098480,1.582886,9.236847
2019-01-28 22:41:18:4118,-0.674484,-0.135681,0.263031,0.452606,1.340012,10.702438
2019-01-28 22:41:18:4118,-0.674484,-0.135681,0.263031,0.756500,1.439316,11.718201
2019-01-28 22:41:18:4118,-0.674484,-0.135681,0.263031,0.326996,1.716873,11.460968
2019-01-28 22:41:18:4118,-0.474243,0.126053,0.001831,0.326996,1.716873,11.460968
2019-01-28 22:41:18:4118,-0.474243,0.126053,0.001831,-0.259262,1.994446,10.835251
2019-01-28 22:41:18:4118,-0.474243,0.126053,0.001831,-0.339417,1.928650,10.311218
2019-01-28 22:41:18:4118,-0.474243,0.126053,0.001831,-0.195847,1.643906,9.882904
2019-01-28 22:41:18:4118,-0.474243,0.126053,0.001831,-0.364532,1.277802,10.800552
2019-01-28 22:41:18:4118,-0.474243,0.126053,0.001831,-0.587082,1.155762,11.421478
2019-01-28 22:41:18:4118,-0.474243,0.126053,0.001831,-0.454269,1.183273,10.552902
2019-01-28 22:41:18:4118,-0.474243,0.126053,0.001831,-0.637329,1.539810,9.951096
2019-01-28 22:41:18:4118,-0.474243,0.126053,0.001831,-1.052475,2.116470,9.187790
2019-01-28 22:41:18:4118,-0.474243,0.126053,0.001831,-0.901733,2.312683,8.052399
2019-01-28 22:41:18:4118,-0.474243,0.126053,0.001831,-0.301132,1.952576,7.990189
2019-01-28 22:41:18:4118,-0.015869,0.104065,0.114227,-0.301132,1.952576,7.990189
2019-01-28 22:41:18:4118,-0.015869,0.104065,0.114227,0.051819,1.532623,9.075317
2019-01-28 22:41:18:4118,-0.015869,0.104065,0.114227,0.165482,1.062439,10.238235
2019-01-28 22:41:18:4118,-0.015869,0.104065,0.114227,-0.059464,1.271805,10.567245
2019-01-28 22:41:18:4118,-0.015869,0.104065,0.114227,-0.171921,1.561340,10.088684
2019-01-28 22:41:18:4118,-0.015869,0.104065,0.114227,-0.174301,1.514679,8.876724
2019-01-28 22:41:18:4118,-0.015869,0.104065,0.114227,-0.418381,1.149780,9.203339
2019-01-28 22:41:18:4118,-0.015869,0.104065,0.114227,-0.163544,0.652069,10.113815
2019-01-28 22:41:18:4118,-0.015869,0.104065,0.114227,-0.454269,0.990662,10.588791
2019-01-28 22:41:18:4118,-0.015869,0.104065,0.114227,-0.730652,1.709702,10.441620
2019-01-28 22:41:18:4118,-0.112320,0.011414,-0.028351,-0.730652,1.709702,10.441620
2019-01-28 22:41:18:4118,-0.112320,0.011414,-0.028351,-0.542801,2.035126,9.029861
2019-01-28 22:41:18:4118,-0.112320,0.011414,-0.028351,-0.557159,1.848480,8.839630
2019-01-28 22:41:18:4118,-0.112320,0.011414,-0.028351,-0.102524,1.645096,9.293076
2019-01-28 22:41:18:4118,-0.112320,0.011414,-0.028351,0.092499,1.337616,9.519196
2019-01-28 22:41:18:4118,-0.112320,0.011414,-0.028351,0.402359,1.049271,9.583801
2019-01-28 22:41:18:4118,-0.112320,0.011414,-0.028351,0.137970,1.008591,9.212906
2019-01-28 22:41:18:4118,-0.112320,0.011414,-0.028351,-0.143204,1.019379,8.694870
2019-01-28 22:41:18:4118,-0.112320,0.011414,-0.028351,-0.587067,1.027740,8.511810
2019-01-28 22:41:18:4118,-0.112320,0.011414,-0.028351,-1.018982,1.189255,8.760666
2019-01-28 22:41:18:4118,-0.112320,0.011414,-0.028351,-1.221176,1.524246,8.944916
2019-01-28 22:41:18:4118,0.062805,0.106094,-0.068420,-1.221176,1.524246,8.944916
2019-01-28 22:41:18:4118,0.062805,0.106094,-0.068420,-1.162552,1.560150,8.666153
2019-01-28 22:41:18:4118,0.062805,0.106094,-0.068420,-0.990265,1.446487,8.898254
2019-01-28 22:41:18:4118,0.062805,0.106094,-0.068420,-1.013000,1.471619,9.672333
2019-01-28 22:41:18:4118,0.062805,0.106094,-0.068420,-0.869431,1.485977,10.020493
2019-01-28 22:41:18:4118,0.062805,0.106094,-0.068420,-0.780884,1.244293,10.171234
2019-01-28 22:41:18:4118,0.062805,0.106094,-0.068420,-0.559555,0.650879,10.514603
2019-01-28 22:41:18:4118,0.062805,0.106094,-0.068420,-0.703125,0.154358,11.072144
2019-01-28 22:41:18:4118,0.062805,0.106094,-0.068420,-0.867035,0.556351,12.322388
2019-01-28 22:41:18:4118,0.062805,0.106094,-0.068420,-0.553574,1.878387,13.417099
2019-01-28 22:41:18:4118,0.355301,0.035660,-0.060715,-0.553574,1.878387,13.417099
2019-01-28 22:41:18:4118,0.355301,0.035660,-0.060715,0.134369,2.493347,13.184998
2019-01-28 22:41:18:4118,0.355301,0.035660,-0.060715,1.200378,1.634323,11.803146
2019-01-28 22:41:18:4118,0.355301,0.035660,-0.060715,0.355713,1.692947,8.577621
2019-01-28 22:41:18:4118,0.355301,0.035660,-0.060715,-0.214981,2.345001,7.058182
2019-01-28 22:41:18:4118,0.355301,0.035660,-0.060715,-0.760559,2.612991,6.706421
2019-01-28 22:41:18:4118,0.355301,0.035660,-0.060715,-0.472214,2.464630,6.711212
2019-01-28 22:41:18:4118,0.355301,0.035660,-0.060715,-0.498535,2.200226,7.356079
2019-01-28 22:41:19:4119,0.355301,0.035660,-0.060715,-0.657654,2.124847,7.569046
2019-01-28 22:41:19:4119,0.355301,0.035660,-0.060715,-0.646896,2.189453,8.709213
2019-01-28 22:41:19:4119,0.355301,0.035660,-0.060715,-0.636124,2.254059,9.849396
2019-01-28 22:41:19:4119,0.355301,0.035660,-0.060715,-0.602631,1.947784,9.701050
2019-01-28 22:41:19:4119,0.355301,0.035660,-0.060715,-0.315491,1.861633,9.803940
2019-01-28 22:41:19:4119,0.355301,0.035660,-0.060715,-0.451874,1.935822,11.043411
2019-01-28 22:41:19:4119,0.355301,0.035660,-0.060715,-0.480591,2.069809,11.435837
2019-01-28 22:41:19:4119,0.355301,0.035660,-0.060715,-0.174301,1.442902,11.172623
2019-01-28 22:41:19:4119,0.355301,0.035660,-0.060715,0.519608,1.098328,10.952484
2019-01-28 22:41:19:4119,0.355301,0.035660,-0.060715,-0.657654,2.124847,7.569046
2019-01-28 22:41:19:4119,0.355301,0.035660,-0.060715,0.035065,1.599030,8.107422
2019-01-28 22:41:19:4119,0.355301,0.035660,-0.060715,-0.144394,0.996643,8.948502
2019-01-28 22:41:19:4119,0.355301,0.035660,-0.060715,0.175049,0.274002,11.299454
2019-01-28 22:41:19:4119,0.355301,0.035660,-0.060715,0.874954,-0.028687,11.172638
2019-01-28 22:41:19:4119,0.355301,0.035660,-0.060715,0.932373,-0.275162,9.951096
2019-01-28 22:41:19:4119,0.355301,0.035660,-0.060715,1.357101,-0.096893,9.613708
2019-01-28 22:41:19:4119,0.355301,0.035660,-0.060715,0.763687,1.012192,10.217896
2019-01-28 22:41:19:4119,0.355301,0.035660,-0.060715,-0.487762,1.558960,10.219101
2019-01-28 22:41:19:4119,-0.175842,-0.176285,-0.121368,-0.487762,1.558960,10.219101
2019-01-28 22:41:19:4119,-0.175842,-0.176285,-0.121368,-0.722275,1.434525,9.825485
2019-01-28 22:41:19:4119,-0.175842,-0.176285,-0.121368,-0.372910,-0.416336,7.851395
2019-01-28 22:41:19:4119,-0.175842,-0.176285,-0.121368,-0.437515,-0.057404,7.514008
2019-01-28 22:41:19:4119,-0.175842,-0.176285,-0.121368,-0.392059,0.236908,9.306229
2019-01-28 22:41:19:4119,-0.175842,-0.176285,-0.121368,-0.640915,-0.131577,9.746506
2019-01-28 22:41:19:4119,-0.175842,-0.176285,-0.121368,-0.638519,-0.746536,9.165054
2019-01-28 22:41:19:4119,-0.175842,-0.176285,-0.121368,-0.585876,-0.524002,10.064758
2019-01-28 22:41:19:4119,-0.175842,-0.176285,-0.121368,-1.136215,-0.167480,10.495468
2019-01-28 22:41:19:4119,-0.175842,-0.176285,-0.121368,-1.136215,-0.167480,10.495468
2019-01-28 22:41:19:4119,-0.175842,-0.176285,-0.121368,1.085526,0.776505,9.508438
2019-01-28 22:41:19:4119,-0.175842,-0.176285,-0.121368,0.940750,1.196442,10.640228
2019-01-28 22:41:19:4119,-0.175842,-0.176285,-0.121368,0.450226,1.140213,12.456375
2019-01-28 22:41:19:4119,-0.175842,-0.176285,-0.121368,1.165680,0.957153,12.495865
2019-01-28 22:41:19:4119,-0.175842,-0.176285,-0.121368,1.719620,0.699936,11.864151
2019-01-28 22:41:19:4119,-0.175842,-0.176285,-0.121368,1.558105,0.885376,11.464554
2019-01-28 22:41:19:4119,-0.175842,-0.176285,-0.121368,1.229080,1.599625,10.310013
2019-01-28 22:41:19:4119,-0.175842,-0.176285,-0.121368,0.843842,2.128433,8.638641
2019-01-28 22:41:19:4119,0.921127,0.158676,0.252426,0.843842,2.128433,8.638641
2019-01-28 22:41:19:4119,0.921127,0.158676,0.252426,0.605759,2.062637,8.568039
2019-01-28 22:41:19:4119,0.921127,0.158676,0.252426,0.050629,2.161942,8.773834
2019-01-28 22:41:19:4119,0.921127,0.158676,0.252426,-0.320267,2.450287,7.999756
2019-01-28 22:41:19:4119,0.921127,0.158676,0.252426,-0.491364,2.404816,7.432648
2019-01-28 22:41:19:4119,0.921127,0.158676,0.252426,-0.524857,2.500534,7.411118
2019-01-28 22:41:19:4119,0.921127,0.158676,0.252426,-1.089569,2.916885,7.224487
2019-01-28 22:41:19:4119,0.921127,0.158676,0.252426,-1.394653,3.525848,7.072525
2019-01-28 22:41:19:4119,0.921127,0.158676,0.252426,-0.920868,3.614380,7.932755
2019-01-28 22:41:19:4119,0.207581,0.220016,-0.092728,-0.920868,3.614380,7.932755
2019-01-28 22:41:19:4119,0.207581,0.220016,-0.092728,-0.354965,3.091553,9.175827
2019-01-28 22:41:19:4119,0.207581,0.220016,-0.092728,-0.319077,2.455063,10.689285
2019-01-28 22:41:20:4120,0.207581,0.220016,-0.092728,0.104462,1.950180,11.736145
2019-01-28 22:41:20:4120,0.207581,0.220016,-0.092728,0.914429,1.588867,11.365265
2019-01-28 22:41:20:4120,0.207581,0.220016,-0.092728,1.139359,1.886765,10.118591
2019-01-28 22:41:20:4120,0.207581,0.220016,-0.092728,0.225296,2.873810,9.406738
2019-01-28 22:41:20:4120,0.207581,0.220016,-0.092728,-0.211395,3.853668,8.745117
2019-01-28 22:41:20:4120,0.207581,0.220016,-0.092728,-0.331039,3.236313,8.996353
2019-01-28 22:41:20:4120,0.207581,0.220016,-0.092728,-0.131241,1.988464,11.277924
2019-01-28 22:41:20:4120,0.207581,0.220016,-0.092728,0.675140,1.427353,12.903839
2019-01-28 22:41:20:4120,-0.174316,-0.103241,-0.202927,0.675140,1.427353,12.903839
2019-01-28 22:41:20:4120,-0.174316,-0.103241,-0.202927,0.834274,1.834122,11.731354
2019-01-28 22:41:20:4120,-0.174316,-0.103241,-0.202927,-0.320282,2.543594,9.514404
2019-01-28 22:41:20:4120,-0.174316,-0.103241,-0.202927,-0.916092,2.921661,8.004532
2019-01-28 22:41:20:4120,-0.174316,-0.103241,-0.202927,-0.768936,2.787674,7.275925
2019-01-28 22:41:20:4120,-0.174316,-0.103241,-0.202927,-0.649277,2.264832,8.090683
2019-01-28 22:41:20:4120,-0.174316,-0.103241,-0.202927,-0.152786,1.820969,8.745117
2019-01-28 22:41:20:4120,-0.174316,-0.103241,-0.202927,0.417923,1.304108,8.639832
2019-01-28 22:41:20:4120,-0.174316,-0.103241,-0.202927,0.663193,0.984680,9.305038
2019-01-28 22:41:20:4120,-0.174316,-0.103241,-0.202927,0.336563,0.942795,10.225082
2019-01-28 22:41:20:4120,-0.042923,0.037064,-0.235916,0.336563,0.942795,10.225082
2019-01-28 22:41:20:4120,-0.042923,0.037064,-0.235916,0.173859,0.800430,10.333954
2019-01-28 22:41:20:4120,-0.042923,0.037064,-0.235916,0.116425,0.607803,10.455978
2019-01-28 22:41:20:4120,-0.042923,0.037064,-0.235916,-0.133636,0.954758,10.601944
2019-01-28 22:41:20:4120,-0.042923,0.037064,-0.235916,-0.417191,1.426147,9.771637
2019-01-28 22:41:20:4120,-0.042923,0.037064,-0.235916,-0.810806,1.554169,8.572830
2019-01-28 22:41:20:4120,-0.042923,0.037064,-0.235916,-1.015381,1.282578,8.407730
2019-01-28 22:41:20:4120,-0.042923,0.037064,-0.235916,-1.283386,1.237122,8.353882
2019-01-28 22:41:20:4120,-0.042923,0.037064,-0.235916,-1.028549,1.211990,8.381409
2019-01-28 22:41:20:4120,-0.042923,0.037064,-0.235916,-0.605026,0.983475,8.242615
2019-01-28 22:41:20:4120,-0.042923,0.037064,-0.235916,-0.188660,0.263245,8.484299
2019-01-28 22:41:20:4120,0.166656,0.017700,-0.202621,-0.188660,0.263245,8.484299
2019-01-28 22:41:20:4120,0.166656,0.017700,-0.202621,-0.299927,-0.509659,10.780212
2019-01-28 22:41:20:4120,0.166656,0.017700,-0.202621,0.431076,-1.585220,15.969040
2019-01-28 22:41:20:4120,0.166656,0.017700,-0.202621,0.143936,-1.060013,13.146713
2019-01-28 22:41:20:4120,0.166656,0.017700,-0.202621,-1.005814,0.313492,8.580017
2019-01-28 22:41:20:4120,0.166656,0.017700,-0.202621,-1.007004,0.691559,9.078918
2019-01-28 22:41:20:4120,0.166656,0.017700,-0.202621,-0.930435,1.081589,9.549103
2019-01-28 22:41:20:4120,0.166656,0.017700,-0.202621,-0.778503,1.307709,9.611313
2019-01-28 22:41:20:4120,0.166656,0.017700,-0.202621,-0.750977,1.067230,9.814713
2019-01-28 22:41:20:4120,0.166656,0.017700,-0.202621,-0.482986,1.030136,9.961868
2019-01-28 22:41:20:4120,0.375137,-0.131470,-0.236649,-0.482986,1.030136,9.961868
2019-01-28 22:41:20:4120,0.375137,-0.131470,-0.236649,-0.299942,1.371109,9.986984
2019-01-28 22:41:20:4120,0.375137,-0.131470,-0.236649,-0.211395,1.524246,9.465363
2019-01-28 22:41:20:4120,0.375137,-0.131470,-0.236649,-0.262848,1.341202,9.021484
2019-01-28 22:41:20:4120,0.375137,-0.131470,-0.236649,-0.418381,1.304123,9.060974
2019-01-28 22:41:20:4120,0.375137,-0.131470,-0.236649,-0.753372,1.458450,9.528763
2019-01-28 22:41:20:4120,0.375137,-0.131470,-0.236649,-0.596649,1.696548,9.479721
2019-01-28 22:41:20:4120,0.375137,-0.131470,-0.236649,-0.368134,1.864044,9.990570
2019-01-28 22:41:20:4120,0.375137,-0.131470,-0.236649,-0.386078,1.817383,9.855392
2019-01-28 22:41:20:4120,0.375137,-0.131470,-0.236649,-0.390869,1.600830,8.940125
2019-01-28 22:41:20:4120,0.375137,-0.131470,-0.236649,-0.371719,1.238312,8.845612
2019-01-28 22:41:20:4120,-0.115234,-0.153946,0.083069,-0.371719,1.238312,8.845612
2019-01-28 22:41:20:4120,-0.115234,-0.153946,0.083069,-0.284378,1.079193,9.379211
2019-01-28 22:41:20:4120,-0.115234,-0.153946,0.083069,-0.345398,1.334030,9.297852
2019-01-28 22:41:20:4120,-0.115234,-0.153946,0.083069,-0.410004,1.852066,9.285889
2019-01-28 22:41:20:4120,-0.115234,-0.153946,0.083069,-0.529648,1.972916,9.470139
2019-01-28 22:41:20:4120,-0.115234,-0.153946,0.083069,-0.096542,1.600830,9.707031
2019-01-28 22:41:20:4120,-0.115234,-0.153946,0.083069,-0.153976,1.385468,10.032455
2019-01-28 22:41:20:4120,-0.115234,-0.153946,0.083069,-0.743805,1.367523,9.855377
2019-01-28 22:41:20:4120,-0.115234,-0.153946,0.083069,-0.626556,1.202423,9.806335
2019-01-28 22:41:20:4120,-0.115234,-0.153946,0.083069,-0.153976,0.667618,10.451202
2019-01-28 22:41:21:4121,-0.012878,0.020386,0.080200,-0.153976,0.667618,10.451202
2019-01-28 22:41:21:4121,-0.012878,0.020386,0.080200,-0.332245,0.457062,10.252594
2019-01-28 22:41:21:4121,-0.012878,0.020386,0.080200,-0.364532,0.673615,10.177216
2019-01-28 22:41:21:4121,-0.012878,0.020386,0.080200,-0.335831,0.844696,10.654587
2019-01-28 22:41:21:4121,-0.012878,0.020386,0.080200,-0.289169,0.935623,10.508621
2019-01-28 22:41:21:4121,-0.012878,0.020386,0.080200,-0.618179,1.256256,9.910416
2019-01-28 22:41:21:4121,-0.012878,0.020386,0.080200,-0.731842,1.621170,8.313202
2019-01-28 22:41:21:4121,-0.012878,0.020386,0.080200,-0.414795,1.074402,7.877716
2019-01-28 22:41:21:4121,-0.012878,0.020386,0.080200,-0.997437,0.728638,7.876526
2019-01-28 22:41:21:4121,-0.012878,0.020386,0.080200,-1.436523,1.203613,7.742523
2019-01-28 22:41:21:4121,-0.523300,-0.071854,0.425873,-1.436523,1.203613,7.742523
2019-01-28 22:41:21:4121,-0.523300,-0.071854,0.425873,-1.358749,1.812592,7.918396
2019-01-28 22:41:21:4121,-0.523300,-0.071854,0.425873,-1.279800,1.932236,7.887283
2019-01-28 22:41:21:4121,-0.523300,-0.071854,0.425873,-0.943604,1.418976,9.050201
2019-01-28 22:41:21:4121,-0.523300,-0.071854,0.425873,-0.668427,0.723846,10.534943
2019-01-28 22:41:21:4121,-0.523300,-0.071854,0.425873,-0.499741,0.439117,11.545914
2019-01-28 22:41:21:4121,-0.523300,-0.071854,0.425873,0.021912,0.691544,10.733551
2019-01-28 22:41:21:4121,-0.523300,-0.071854,0.425873,0.537567,0.819565,9.284698
2019-01-28 22:41:21:4121,-0.523300,-0.071854,0.425873,1.219513,0.470215,9.040634
2019-01-28 22:41:21:4121,-0.523300,-0.071854,0.425873,0.918015,-0.102875,10.935745
2019-01-28 22:41:21:4121,-0.523300,-0.071854,0.425873,0.316223,-0.120819,12.406128
2019-01-28 22:41:21:4121,-0.121414,-0.078506,0.212082,0.316223,-0.120819,12.406128
2019-01-28 22:41:21:4121,-0.121414,-0.078506,0.212082,-0.082184,0.300323,11.841431
2019-01-28 22:41:21:4121,-0.121414,-0.078506,0.212082,0.026703,0.878189,11.111618
2019-01-28 22:41:21:4121,-0.121414,-0.078506,0.212082,-0.127655,1.200027,11.035049
2019-01-28 22:41:21:4121,-0.121414,-0.078506,0.212082,-0.419571,0.843491,11.620087
2019-01-28 22:41:21:4121,-0.121414,-0.078506,0.212082,-0.071411,-0.172256,11.705032
2019-01-28 22:41:21:4121,-0.121414,-0.078506,0.212082,0.322205,-0.715439,11.874924
2019-01-28 22:41:21:4121,-0.121414,-0.078506,0.212082,0.097275,-0.122025,10.623474
2019-01-28 22:41:21:4121,-0.121414,-0.078506,0.212082,-0.454269,0.856659,7.018692
2019-01-28 22:41:21:4121,-0.121414,-0.078506,0.212082,-0.680389,1.555359,2.524963
2019-01-28 22:41:21:4121,0.605560,0.252014,-0.054794,-0.680389,1.555359,2.524963
2019-01-28 22:41:21:4121,0.605560,0.252014,-0.054794,-0.358566,1.763535,0.193176
2019-01-28 22:41:21:4121,0.605560,0.252014,-0.054794,0.056610,1.523056,2.230652
2019-01-28 22:41:21:4121,0.605560,0.252014,-0.054794,0.114029,0.490555,9.008331
2019-01-28 22:41:21:4121,0.605560,0.252014,-0.054794,0.145142,-0.387619,16.487091
2019-01-28 22:41:21:4121,0.605560,0.252014,-0.054794,-0.453079,0.518066,12.671738
2019-01-28 22:41:21:4121,0.605560,0.252014,-0.054794,-0.932831,1.587662,9.446213
2019-01-28 22:41:21:4121,0.605560,0.252014,-0.054794,-0.892151,2.004013,9.089676
2019-01-28 22:41:21:4121,0.605560,0.252014,-0.054794,-0.249680,1.798233,8.922180
2019-01-28 22:41:21:4121,0.605560,0.252014,-0.054794,-0.564331,1.785080,9.400742
2019-01-28 22:41:21:4121,0.605560,0.252014,-0.054794,-1.125458,2.145187,10.306427
2019-01-28 22:41:21:4121,-0.204071,-0.001846,0.035553,-1.125458,2.145187,10.306427
2019-01-28 22:41:21:4121,-0.204071,-0.001846,0.035553,-1.164948,2.386871,10.903442
2019-01-28 22:41:21:4121,-0.204071,-0.001846,0.035553,-0.633728,2.427551,10.878311
2019-01-28 22:41:21:4121,-0.204071,-0.001846,0.035553,-0.211395,2.160751,10.429657
2019-01-28 22:41:21:4121,-0.204071,-0.001846,0.035553,0.063782,1.447678,10.057571
2019-01-28 22:41:21:4121,-0.204071,-0.001846,0.035553,0.160690,0.675995,10.325577
2019-01-28 22:41:21:4121,-0.204071,-0.001846,0.035553,0.111633,0.293152,10.183212
2019-01-28 22:41:21:4121,-0.204071,-0.001846,0.035553,-0.048691,0.570709,9.261963
2019-01-28 22:41:21:4121,-0.204071,-0.001846,0.035553,-0.279587,1.200027,7.916000
2019-01-28 22:41:21:4121,-0.204071,-0.001846,0.035553,-0.981888,1.923859,7.545120
2019-01-28 22:41:22:4122,-0.444992,-0.141907,0.034134,-0.981888,1.923859,7.545120
2019-01-28 22:41:22:4122,-0.444992,-0.141907,0.034134,-1.665039,2.656052,7.900452
2019-01-28 22:41:22:4122,-0.444992,-0.141907,0.034134,-1.522675,2.785278,9.095673
2019-01-28 22:41:22:4122,-0.444992,-0.141907,0.034134,-0.884979,2.160751,10.433258
2019-01-28 22:41:22:4122,-0.444992,-0.141907,0.034134,-0.212601,1.433334,13.007919
2019-01-28 22:41:22:4122,-0.444992,-0.141907,0.034134,-0.017578,0.947586,14.055984
2019-01-28 22:41:22:4122,-0.444992,-0.141907,0.034134,0.452606,0.482178,13.368057
2019-01-28 22:41:22:4122,-0.444992,-0.141907,0.034134,1.095078,0.165131,11.352097
2019-01-28 22:41:22:4122,-0.444992,-0.141907,0.034134,1.243439,0.072998,9.611313
2019-01-28 22:41:22:4122,-0.444992,-0.141907,0.034134,0.575851,0.271606,8.697266
2019-01-28 22:41:22:4122,-0.444992,-0.141907,0.034134,0.255203,0.823166,8.216309
2019-01-28 22:41:22:4122,-0.024597,0.051605,-0.403595,0.255203,0.823166,8.216309
2019-01-28 22:41:22:4122,-0.024597,0.051605,-0.403595,0.160690,1.698929,6.961273
2019-01-28 22:41:22:4122,-0.024597,0.051605,-0.403595,-0.114487,2.434723,6.117798
2019-01-28 22:41:22:4122,-0.024597,0.051605,-0.403595,-0.165939,2.474197,6.735138
2019-01-28 22:41:22:4122,-0.024597,0.051605,-0.403595,0.506454,1.873611,8.821686
2019-01-28 22:41:22:4122,-0.024597,0.051605,-0.403595,1.046036,1.697739,10.536148
2019-01-28 22:41:22:4122,-0.024597,0.051605,-0.403595,0.426300,2.023163,10.728760
2019-01-28 22:41:22:4122,-0.024597,0.051605,-0.403595,0.203766,1.523056,9.923584
2019-01-28 22:41:22:4122,-0.024597,0.051605,-0.403595,-0.071411,0.987061,9.523972
2019-01-28 22:41:22:4122,-0.024597,0.051605,-0.403595,-0.971115,1.623550,9.941528
2019-01-28 22:41:22:4122,-0.024597,0.051605,-0.403595,-1.644699,2.434723,10.591171
2019-01-28 22:41:22:4122,-0.024597,0.051605,-0.403595,-1.464035,2.042297,9.283493
2019-01-28 22:41:22:4122,-0.024597,0.051605,-0.403595,-0.983093,1.568527,9.376816
2019-01-28 22:41:22:4122,-0.024597,0.051605,-0.403595,-0.997437,1.751572,10.076721
2019-01-28 22:41:22:4122,-0.024597,0.051605,-0.403595,-1.497543,1.849686,9.641235
2019-01-28 22:41:22:4122,-0.024597,0.051605,-0.403595,0.118820,0.917679,11.043427
2019-01-28 22:41:22:4122,-0.024597,0.051605,-0.403595,1.698090,-0.010742,12.020889
2019-01-28 22:41:22:4122,-0.024597,0.051605,-0.403595,1.189606,-0.183029,12.063965
2019-01-28 22:41:22:4122,-0.024597,0.051605,-0.403595,-0.133636,0.861450,10.712021
2019-01-28 22:41:22:4122,-0.002731,0.010010,-0.063843,-0.133636,0.861450,10.712021
2019-01-28 22:41:22:4122,-0.002731,0.010010,-0.063843,-0.949585,1.594833,8.723572
2019-01-28 22:41:22:4122,-0.002731,0.010010,-0.063843,-0.910110,1.710892,7.534348
2019-01-28 22:41:22:4122,-0.002731,0.010010,-0.063843,-1.027359,1.757553,7.766449
2019-01-28 22:41:22:4122,-0.002731,0.010010,-0.063843,-0.603821,1.812592,7.847809
2019-01-28 22:41:22:4122,-0.002731,0.010010,-0.063843,-0.152771,1.733627,7.586990
2019-01-28 22:41:22:4122,-0.002731,0.010010,-0.063843,0.354507,1.229935,8.463959
2019-01-28 22:41:22:4122,-0.002731,0.010010,-0.063843,0.742142,0.672409,10.124573
2019-01-28 22:41:22:4122,-0.002731,0.010010,-0.063843,0.192993,0.664032,11.384399
2019-01-28 22:41:22:4122,-0.002731,0.010010,-0.063843,0.109253,1.172501,11.393967
2019-01-28 22:41:22:4122,-0.002731,0.010010,-0.063843,-0.198242,1.475204,10.220291
2019-01-28 22:41:22:4122,-0.063080,-0.152420,0.058029,-0.198242,1.475204,10.220291
2019-01-28 22:41:23:4123,-0.063080,-0.152420,0.058029,-0.199432,1.911896,9.184204
2019-01-28 22:41:23:4123,-0.063080,-0.152420,0.058029,-0.364532,2.069824,8.874329
2019-01-28 22:41:23:4123,-0.063080,-0.152420,0.058029,-0.378906,1.743195,8.830063
2019-01-28 22:41:23:4123,-0.063080,-0.152420,0.058029,-0.298737,1.190460,9.294266
2019-01-28 22:41:23:4123,-0.063080,-0.152420,0.058029,-0.046295,0.772903,9.784790
2019-01-28 22:41:23:4123,-0.063080,-0.152420,0.058029,0.437057,0.252472,10.726364
2019-01-28 22:41:23:4123,-0.063080,-0.152420,0.058029,0.829483,-0.123215,11.468155
2019-01-28 22:41:23:4123,-0.063080,-0.152420,0.058029,1.036469,-0.380447,11.877319
2019-01-28 22:41:23:4123,-0.063080,-0.152420,0.058029,0.709854,-0.174667,11.718201
2019-01-28 22:41:23:4123,-0.160568,-0.141724,0.029739,0.709854,-0.174667,11.718201
2019-01-28 22:41:23:4123,-0.160568,-0.141724,0.029739,0.460999,0.714279,10.490677
2019-01-28 22:41:23:4123,-0.160568,-0.141724,0.029739,0.251617,1.527847,9.117203
2019-01-28 22:41:23:4123,-0.160568,-0.141724,0.029739,-0.140808,1.873611,7.646805
2019-01-28 22:41:23:4123,-0.160568,-0.141724,0.029739,-0.438721,1.734818,7.854980
2019-01-28 22:41:23:4123,-0.160568,-0.141724,0.029739,-0.034332,1.174911,8.564453
2019-01-28 22:41:23:4123,-0.160568,-0.141724,0.029739,0.321014,0.472610,9.306229
2019-01-28 22:41:23:4123,-0.160568,-0.141724,0.029739,0.319809,0.563538,8.837234
2019-01-28 22:41:23:4123,-0.160568,-0.141724,0.029739,0.110443,1.020569,8.339523
2019-01-28 22:41:23:4123,-0.160568,-0.141724,0.029739,-0.090561,1.411789,8.148102
2019-01-28 22:41:23:4123,-0.160568,-0.141724,0.029739,-0.205414,1.403412,8.885101
2019-01-28 22:41:23:4123,0.105820,0.100037,-0.078186,-0.205414,1.403412,8.885101
2019-01-28 22:41:23:4123,0.105820,0.100037,-0.078186,-0.198242,0.990646,10.243027
2019-01-28 22:41:23:4123,0.105820,0.100037,-0.078186,0.019516,0.745392,12.083099
2019-01-28 22:41:23:4123,0.105820,0.100037,-0.078186,0.227692,0.899719,13.097656
2019-01-28 22:41:23:4123,0.105820,0.100037,-0.078186,0.242050,1.062439,12.194366
2019-01-28 22:41:23:4123,0.105820,0.100037,-0.078186,0.015930,1.258652,11.038635
2019-01-28 22:41:23:4123,0.105820,0.100037,-0.078186,0.029083,1.488358,10.411713
2019-01-28 22:41:23:4123,0.105820,0.100037,-0.078186,0.376053,1.604416,9.666351
2019-01-28 22:41:23:4123,0.105820,0.100037,-0.078186,0.191803,1.795837,8.803741
2019-01-28 22:41:23:4123,0.105820,0.100037,-0.078186,0.212143,1.942993,7.936340
2019-01-28 22:41:23:4123,0.182480,0.101074,-0.040741,0.212143,1.942993,7.936340
2019-01-28 22:41:23:4123,0.182480,0.101074,-0.040741,-0.004425,1.740799,7.954285
2019-01-28 22:41:23:4123,0.182480,0.101074,-0.040741,-0.045105,1.158157,9.027466
2019-01-28 22:41:23:4123,0.182480,0.101074,-0.040741,0.081726,0.562347,10.288483
2019-01-28 22:41:23:4123,0.182480,0.101074,-0.040741,0.240845,0.524063,11.210922
2019-01-28 22:41:23:4123,0.182480,0.101074,-0.040741,0.172653,0.744186,10.884293
2019-01-28 22:41:23:4123,0.182480,0.101074,-0.040741,-0.238922,1.247879,10.729965
2019-01-28 22:41:23:4123,0.182480,0.101074,-0.040741,-0.581085,1.872406,10.365051
2019-01-28 22:41:23:4123,0.182480,0.101074,-0.040741,-0.491364,2.030334,9.509628
2019-01-28 22:41:23:4123,0.182480,0.101074,-0.040741,-0.384872,1.910690,8.943726
2019-01-28 22:41:23:4123,0.182480,0.101074,-0.040741,-0.162354,1.637909,8.412506
2019-01-28 22:41:23:4123,0.226883,0.005905,-0.119476,-0.162354,1.637909,8.412506
2019-01-28 22:41:23:4123,0.226883,0.005905,-0.119476,0.171463,1.379486,7.987778
2019-01-28 22:41:23:4123,0.226883,0.005905,-0.119476,0.017120,1.140198,7.720978
2019-01-28 22:41:23:4123,0.226883,0.005905,-0.119476,-0.006805,1.229935,7.169434
2019-01-28 22:41:23:4123,0.226883,0.005905,-0.119476,-0.303528,1.568527,6.951691
2019-01-28 22:41:23:4123,0.226883,0.005905,-0.119476,-0.456665,1.942993,7.403946
2019-01-28 22:41:23:4123,0.226883,0.005905,-0.119476,-0.591858,1.928650,8.307236
2019-01-28 22:41:23:4123,0.226883,0.005905,-0.119476,-0.540405,1.552963,9.933151
2019-01-28 22:41:23:4123,0.226883,0.005905,-0.119476,-0.083389,0.686768,11.694275
2019-01-28 22:41:23:4123,0.226883,0.005905,-0.119476,0.459793,-0.291901,13.352493
2019-01-28 22:41:23:4123,-0.197296,-0.200912,0.134079,0.459793,-0.291901,13.352493
2019-01-28 22:41:23:4123,-0.197296,-0.200912,0.134079,0.833069,-0.241653,13.851395
2019-01-28 22:41:23:4123,-0.197296,-0.200912,0.134079,0.146332,1.091156,12.292480
2019-01-28 22:41:23:4123,-0.197296,-0.200912,0.134079,-0.861053,2.746979,9.646011
2019-01-28 22:41:23:4123,-0.197296,-0.200912,0.134079,-1.028549,3.144196,7.914810
2019-01-28 22:41:23:4123,-0.197296,-0.200912,0.134079,-0.395645,2.315079,8.149307
2019-01-28 22:41:23:4123,-0.197296,-0.200912,0.134079,0.309052,1.380676,9.892471
2019-01-28 22:41:23:4123,-0.197296,-0.200912,0.134079,0.812744,0.748978,10.863968
2019-01-28 22:41:23:4123,-0.197296,-0.200912,0.134079,0.813934,0.648483,10.398560
2019-01-28 22:41:23:4123,-0.197296,-0.200912,0.134079,0.347321,1.250275,9.852997
2019-01-28 22:41:23:4123,-0.042679,-0.163773,0.195526,0.347321,1.250275,9.852997
2019-01-28 22:41:23:4123,-0.042679,-0.163773,0.195526,-0.130035,1.856857,9.600555
2019-01-28 22:41:23:4123,-0.042679,-0.163773,0.195526,0.362885,1.337616,9.991776
2019-01-28 22:41:23:4123,-0.042679,-0.163773,0.195526,1.174057,0.402023,10.948898
2019-01-28 22:41:23:4123,-0.042679,-0.163773,0.195526,1.278137,0.041901,11.685898
2019-01-28 22:41:23:4123,-0.042679,-0.163773,0.195526,1.134567,0.343399,10.813721
2019-01-28 22:41:23:4123,-0.042679,-0.163773,0.195526,0.403564,1.036118,9.174622
2019-01-28 22:41:23:4123,-0.042679,-0.163773,0.195526,-0.331039,1.915482,8.046417
2019-01-28 22:41:23:4123,-0.042679,-0.163773,0.195526,-0.572708,2.260040,7.134750
2019-01-28 22:41:23:4123,-0.042679,-0.163773,0.195526,0.013535,1.794647,7.519989
2019-01-28 22:41:23:4123,-0.042679,-0.163773,0.195526,0.574646,1.283768,8.676926
2019-01-28 22:41:24:4124,0.168976,-0.047653,0.059677,0.574646,1.283768,8.676926
2019-01-28 22:41:24:4124,0.168976,-0.047653,0.059677,0.559097,1.098328,9.880508
2019-01-28 22:41:24:4124,0.168976,-0.047653,0.059677,0.533966,1.106705,9.937943
2019-01-28 22:41:24:4124,0.168976,-0.047653,0.059677,0.457397,1.324448,9.407928
2019-01-28 22:41:24:4124,0.168976,-0.047653,0.059677,0.143936,2.030334,9.003540
2019-01-28 22:41:24:4124,0.168976,-0.047653,0.059677,-0.119278,2.463440,8.736740
2019-01-28 22:41:24:4124,0.168976,-0.047653,0.059677,0.560303,1.783875,9.282303
2019-01-28 22:41:24:4124,0.168976,-0.047653,0.059677,1.126190,0.882980,10.275314
2019-01-28 22:41:24:4124,0.168976,-0.047653,0.059677,0.851013,0.582672,11.255188
2019-01-28 22:41:24:4124,0.168976,-0.047653,0.059677,0.579437,1.100723,10.831650
2019-01-28 22:41:24:4124,-0.006271,0.102783,0.118439,0.579437,1.100723,10.831650
2019-01-28 22:41:24:4124,-0.006271,0.102783,0.118439,-0.006805,2.037521,9.281113
2019-01-28 22:41:24:4124,-0.006271,0.102783,0.118439,-0.374115,2.720673,7.814316
2019-01-28 22:41:24:4124,-0.006271,0.102783,0.118439,-0.236526,2.645294,7.525970
2019-01-28 22:41:24:4124,-0.006271,0.102783,0.118439,0.005157,2.029144,8.804932
2019-01-28 22:41:24:4124,-0.006271,0.102783,0.118439,0.575851,1.298126,10.208328
