Time,Gx,Gy,Gz,Ax,Ay,Az
2019-01-28 22:48:43:4843,0.202026,-0.090286,-0.203903,0.000000,0.000000,0.000000
2019-01-28 22:48:43:4843,0.202026,-0.090286,-0.203903,-0.536819,1.326843,9.241623
2019-01-28 22:48:43:4843,0.202026,-0.090286,-0.203903,-0.152771,1.202423,9.563461
2019-01-28 22:48:43:4843,0.202026,-0.090286,-0.203903,-0.109711,1.056458,9.683105
2019-01-28 22:48:43:4843,0.202026,-0.090286,-0.203903,-0.079788,1.067230,9.687881
2019-01-28 22:48:43:4843,0.202026,-0.090286,-0.203903,-0.164734,1.123459,9.672333
2019-01-28 22:48:43:4843,0.202026,-0.090286,-0.203903,-0.309509,1.137817,9.635239
2019-01-28 22:48:43:4843,0.202026,-0.090286,-0.203903,-0.591858,1.160553,9.538330
2019-01-28 22:48:43:4843,0.202026,-0.090286,-0.203903,-0.674408,1.289764,9.624481
2019-01-28 22:48:43:4843,0.202026,-0.090286,-0.203903,-0.760559,1.274200,9.681900
2019-01-28 22:48:43:4843,0.202026,-0.090286,-0.203903,-0.749786,1.298126,9.641235
2019-01-28 22:48:44:4844,0.202026,-0.090286,-0.203903,-0.761749,1.393845,9.517990
2019-01-28 22:48:44:4844,0.202026,-0.090286,-0.203903,-0.786880,1.543396,9.391174
2019-01-28 22:48:44:4844,0.202026,-0.090286,-0.203903,-0.804825,1.636719,9.428268
2019-01-28 22:48:44:4844,0.202026,-0.090286,-0.203903,-0.822769,1.541000,9.634048
2019-01-28 22:48:44:4844,0.202026,-0.090286,-0.203903,-0.817978,1.451279,10.058777
2019-01-28 22:48:44:4844,0.202026,-0.090286,-0.203903,-0.560745,1.354370,10.254990
2019-01-28 22:48:44:4844,0.202026,-0.090286,-0.203903,-0.376511,1.341202,8.785797
2019-01-28 22:48:44:4844,0.202026,-0.090286,-0.203903,-0.437531,1.463226,9.632858
2019-01-28 22:48:44:4844,0.202026,-0.090286,-0.203903,-0.217377,1.252670,10.082703
2019-01-28 22:48:44:4844,0.202026,-0.090286,-0.203903,-0.410004,1.306503,10.015701
2019-01-28 22:48:44:4844,0.202026,-0.090286,-0.203903,-0.630142,1.477585,9.448608
2019-01-28 22:48:44:4844,0.202026,-0.090286,-0.203903,-0.802429,1.617569,9.303833
2019-01-28 22:48:44:4844,0.202026,-0.090286,-0.203903,-0.704315,1.682175,9.175827
2019-01-28 22:48:44:4844,0.202026,-0.090286,-0.203903,-0.512894,1.575699,9.206924
2019-01-28 22:48:44:4844,0.202026,-0.090286,-0.203903,-0.508102,1.468018,9.205734
2019-01-28 22:48:44:4844,0.202026,-0.090286,-0.203903,-0.317886,1.301727,9.563461
2019-01-28 22:48:44:4844,0.202026,-0.090286,-0.203903,-0.289169,1.200027,9.952301
2019-01-28 22:48:44:4844,0.202026,-0.090286,-0.203903,-0.328644,1.202423,10.110214
2019-01-28 22:48:44:4844,0.202026,-0.090286,-0.203903,-0.393250,1.329239,9.800354
2019-01-28 22:48:44:4844,0.202026,-0.090286,-0.203903,-0.487778,1.372314,9.656784
2019-01-28 22:48:44:4844,0.202026,-0.090286,-0.203903,-0.597839,1.469223,9.812317
2019-01-28 22:48:44:4844,0.202026,-0.090286,-0.203903,-0.547592,1.475204,9.850601
2019-01-28 22:48:44:4844,0.202026,-0.090286,-0.203903,-0.615784,1.514679,9.747711
2019-01-28 22:48:44:4844,0.202026,-0.090286,-0.203903,-0.597839,1.481186,9.681915
2019-01-28 22:48:44:4844,0.202026,-0.090286,-0.203903,-0.417191,1.432129,9.967850
2019-01-28 22:48:44:4844,0.202026,-0.090286,-0.203903,-0.144394,1.387863,10.031265
2019-01-28 22:48:44:4844,0.202026,-0.090286,-0.203903,-0.189865,1.238312,10.112610
2019-01-28 22:48:44:4844,0.202026,-0.090286,-0.203903,-1.236725,1.652267,5.999359
2019-01-28 22:48:44:4844,0.202026,-0.090286,-0.203903,-0.425552,1.422562,8.596756
2019-01-28 22:48:44:4844,0.202026,-0.090286,-0.203903,0.529190,0.898529,10.719193
2019-01-28 22:48:44:4844,0.202026,-0.090286,-0.203903,-0.841904,0.996628,11.086487
2019-01-28 22:48:44:4844,0.202026,-0.090286,-0.203903,-0.739014,1.459641,10.022873
2019-01-28 22:48:44:4844,0.202026,-0.090286,-0.203903,-0.852676,1.642700,9.824280
2019-01-28 22:48:44:4844,0.202026,-0.090286,-0.203903,-0.571518,1.722855,9.708221
2019-01-28 22:48:44:4844,0.202026,-0.090286,-0.203903,-0.279602,1.581680,9.573029
2019-01-28 22:48:44:4844,0.202026,-0.090286,-0.203903,-0.232925,1.305313,9.494064
2019-01-28 22:48:44:4844,0.202026,-0.090286,-0.203903,-0.234131,1.103119,9.730957
2019-01-28 22:48:44:4844,0.202026,-0.090286,-0.203903,-0.225754,1.019363,9.946304
2019-01-28 22:48:44:4844,0.202026,-0.090286,-0.203903,-0.243713,1.087570,9.984604
2019-01-28 22:48:44:4844,0.202026,-0.090286,-0.203903,-0.368134,1.192841,9.911621
2019-01-28 22:48:44:4844,0.202026,-0.090286,-0.203903,-0.503326,1.347183,9.776428
2019-01-28 22:48:44:4844,0.202026,-0.090286,-0.203903,-0.454269,1.453674,9.683105
2019-01-28 22:48:44:4844,0.202026,-0.090286,-0.203903,-0.541611,1.484772,9.686691
2019-01-28 22:48:44:4844,0.202026,-0.090286,-0.203903,-0.545197,1.462051,9.473740
2019-01-28 22:48:44:4844,0.202026,-0.090286,-0.203903,-0.666046,1.347183,9.418701
2019-01-28 22:48:44:4844,0.202026,-0.090286,-0.203903,-0.595444,1.361542,9.439041
2019-01-28 22:48:44:4844,0.202026,-0.090286,-0.203903,-0.530838,1.355560,9.301453
2019-01-28 22:48:44:4844,0.202026,-0.090286,-0.203903,-0.405228,1.380692,9.291870
2019-01-28 22:48:44:4844,0.202026,-0.090286,-0.203903,-0.551178,1.450073,9.319397
2019-01-28 22:48:44:4844,0.202026,-0.090286,-0.203903,-0.644501,1.515884,9.602936
2019-01-28 22:48:44:4844,0.202026,-0.090286,-0.203903,-0.727051,1.633118,9.677124
2019-01-28 22:48:44:4844,0.202026,-0.090286,-0.203903,-0.800034,1.745590,9.647217
2019-01-28 22:48:44:4844,0.202026,-0.090286,-0.203903,-0.791656,1.742004,9.778809
2019-01-28 22:48:44:4844,0.202026,-0.090286,-0.203903,-0.679199,1.686966,9.806335
2019-01-28 22:48:44:4844,0.202026,-0.090286,-0.203903,-0.477005,1.585266,9.629257
2019-01-28 22:48:44:4844,0.202026,-0.090286,-0.203903,-0.369324,1.532623,9.594559
2019-01-28 22:48:44:4844,0.202026,-0.090286,-0.203903,-0.374115,1.482376,9.567047
2019-01-28 22:48:44:4844,0.202026,-0.090286,-0.203903,-0.499741,1.533829,9.610123
2019-01-28 22:48:44:4844,0.202026,-0.090286,-0.203903,-0.515289,1.600830,9.543121
2019-01-28 22:48:44:4844,0.202026,-0.090286,-0.203903,-0.552368,1.623566,9.270340
2019-01-28 22:48:44:4844,0.202026,-0.090286,-0.203903,-0.650482,1.642700,9.427078
2019-01-28 22:48:44:4844,0.202026,-0.090286,-0.203903,-0.505722,1.465622,9.819489
2019-01-28 22:48:44:4844,0.202026,-0.090286,-0.203903,-0.419571,1.350769,9.790787
2019-01-28 22:48:44:4844,0.202026,-0.090286,-0.203903,-0.352570,1.381882,9.666351
2019-01-28 22:48:44:4844,0.202026,-0.090286,-0.203903,-0.499725,1.405807,9.561066
2019-01-28 22:48:44:4844,0.202026,-0.090286,-0.203903,-0.569122,1.562546,9.272736
2019-01-28 22:48:44:4844,0.202026,-0.090286,-0.203903,-0.557159,1.596039,9.148300
2019-01-28 22:48:44:4844,0.202026,-0.090286,-0.203903,-0.661255,1.578094,9.338531
2019-01-28 22:48:44:4844,0.202026,-0.090286,-0.203903,-0.692352,1.503922,9.574219
2019-01-28 22:48:44:4844,0.202026,-0.090286,-0.203903,-0.646896,1.404617,9.671143
2019-01-28 22:48:44:4844,0.202026,-0.090286,-0.203903,-0.559555,1.336426,9.903244
2019-01-28 22:48:44:4844,0.202026,-0.090286,-0.203903,-0.591858,1.273010,9.870941
2019-01-28 22:48:44:4844,0.202026,-0.090286,-0.203903,-0.520081,1.259842,9.683105
2019-01-28 22:48:44:4844,0.202026,-0.090286,-0.203903,-0.621765,1.191650,9.713013
2019-01-28 22:48:44:4844,0.202026,-0.090286,-0.203903,-0.728241,1.192856,9.904434
2019-01-28 22:48:44:4844,0.202026,-0.090286,-0.203903,-0.737823,1.171310,9.738129
2019-01-28 22:48:44:4844,0.202026,-0.090286,-0.203903,-0.636124,1.186874,9.485703
2019-01-28 22:48:44:4844,0.202026,-0.090286,-0.203903,-0.761749,1.136612,9.531158
2019-01-28 22:48:44:4844,0.202026,-0.090286,-0.203903,-0.681595,1.173706,9.509613
2019-01-28 22:48:44:4844,0.202026,-0.090286,-0.203903,-0.703125,1.188065,9.507233
2019-01-28 22:48:44:4844,0.202026,-0.090286,-0.203903,-0.678009,1.213181,9.589783
2019-01-28 22:48:44:4844,0.202026,-0.090286,-0.203903,-0.735428,1.158157,9.831451
2019-01-28 22:48:44:4844,0.202026,-0.090286,-0.203903,-0.660049,1.231125,9.929565
2019-01-28 22:48:44:4844,0.202026,-0.090286,-0.203903,-0.668427,1.204803,9.795563
2019-01-28 22:48:44:4844,0.202026,-0.090286,-0.203903,-0.529648,1.252670,9.759674
2019-01-28 22:48:44:4844,0.202026,-0.090286,-0.203903,-0.528442,1.188065,9.782410
2019-01-28 22:48:44:4844,0.202026,-0.090286,-0.203903,-0.606216,1.159348,9.912811
2019-01-28 22:48:44:4844,0.202026,-0.090286,-0.203903,-0.486572,1.213181,10.000153
2019-01-28 22:48:44:4844,0.202026,-0.090286,-0.203903,-0.400436,1.311295,9.653183
2019-01-28 22:48:44:4844,0.202026,-0.090286,-0.203903,-0.348984,1.267029,9.409119
2019-01-28 22:48:44:4844,0.202026,-0.090286,-0.203903,-0.505722,1.128235,9.655579
2019-01-28 22:48:44:4844,0.202026,-0.090286,-0.203903,-0.735428,1.033722,10.015701
2019-01-28 22:48:44:4844,0.202026,-0.090286,-0.203903,-0.782089,1.142593,9.995361
2019-01-28 22:48:44:4844,0.202026,-0.090286,-0.203903,-0.578690,1.313690,9.485703
2019-01-28 22:48:44:4844,0.202026,-0.090286,-0.203903,-0.491364,1.353165,9.059769
2019-01-28 22:48:44:4844,0.202026,-0.090286,-0.203903,-0.587067,1.390259,8.840836
2019-01-28 22:48:44:4844,0.202026,-0.090286,-0.203903,-0.817978,1.401016,8.899460
2019-01-28 22:48:44:4844,0.202026,-0.090286,-0.203903,-0.922073,1.306503,9.229660
2019-01-28 22:48:44:4844,0.202026,-0.090286,-0.203903,-0.731842,1.232330,9.642426
2019-01-28 22:48:44:4844,0.202026,-0.090286,-0.203903,-0.668427,1.093552,9.876923
2019-01-28 22:48:44:4844,0.202026,-0.090286,-0.203903,-0.603821,0.987061,10.142517
2019-01-28 22:48:44:4844,0.202026,-0.090286,-0.203903,-0.649292,1.046890,10.327972
2019-01-28 22:48:44:4844,0.202026,-0.090286,-0.203903,-0.597839,1.173706,10.225082
2019-01-28 22:48:44:4844,0.202026,-0.090286,-0.203903,-0.569122,1.142609,10.277725
2019-01-28 22:48:44:4844,0.202026,-0.090286,-0.203903,-0.646896,1.124649,10.207123
2019-01-28 22:48:44:4844,0.202026,-0.090286,-0.203903,-0.729446,1.068420,10.161667
2019-01-28 22:48:44:4844,0.202026,-0.090286,-0.203903,-0.744995,1.182083,9.867355
2019-01-28 22:48:44:4844,0.202026,-0.090286,-0.203903,-0.776108,1.196442,9.514404
2019-01-28 22:48:44:4844,0.202026,-0.090286,-0.203903,-0.874207,1.200027,9.088486
2019-01-28 22:48:44:4844,0.202026,-0.090286,-0.203903,-0.998642,1.239502,8.498657
2019-01-28 22:48:44:4844,0.202026,-0.090286,-0.203903,-0.774918,1.277802,6.864365
2019-01-28 22:48:44:4844,0.202026,-0.090286,-0.203903,0.094879,0.588654,8.557281
2019-01-28 22:48:44:4844,0.202026,-0.090286,-0.203903,-1.286972,0.552765,10.320786
2019-01-28 22:48:44:4844,0.202026,-0.090286,-0.203903,-1.612396,1.060043,10.635437
2019-01-28 22:48:44:4844,0.202026,-0.090286,-0.203903,-1.009399,0.898529,10.506226
2019-01-28 22:48:44:4844,0.202026,-0.090286,-0.203903,-0.454269,0.748978,10.117401
2019-01-28 22:48:44:4844,0.202026,-0.090286,-0.203903,-0.461441,0.588654,9.604141
2019-01-28 22:48:44:4844,0.202026,-0.090286,-0.203903,-0.772522,0.577896,9.624481
2019-01-28 22:48:44:4844,0.202026,-0.090286,-0.203903,-0.980698,0.608994,10.233459
2019-01-28 22:48:44:4844,0.202026,-0.090286,-0.203903,-0.821564,0.674805,10.310028
2019-01-28 22:48:44:4844,0.202026,-0.090286,-0.203903,-0.810806,0.592255,10.058777
2019-01-28 22:48:44:4844,0.202026,-0.090286,-0.203903,-0.815582,0.614990,9.819489
2019-01-28 22:48:44:4844,0.202026,-0.090286,-0.203903,-0.912491,0.624557,9.636444
2019-01-28 22:48:44:4844,0.202026,-0.090286,-0.203903,-0.821564,0.806412,9.583801
2019-01-28 22:48:44:4844,0.202026,-0.090286,-0.203903,-1.032135,0.855453,9.425873
2019-01-28 22:48:44:4844,0.202026,-0.090286,-0.203903,-1.325256,0.997833,9.436646
2019-01-28 22:48:44:4844,0.202026,-0.090286,-0.203903,-1.297745,1.002625,9.634048
2019-01-28 22:48:44:4844,0.202026,-0.090286,-0.203903,-1.138611,0.941605,9.818298
2019-01-28 22:48:44:4844,0.202026,-0.090286,-0.203903,-1.079987,0.812393,9.927170
2019-01-28 22:48:44:4844,0.202026,-0.090286,-0.203903,-1.065643,0.818375,10.008530
2019-01-28 22:48:44:4844,0.202026,-0.090286,-0.203903,-0.861053,0.826752,10.009720
2019-01-28 22:48:44:4844,0.202026,-0.090286,-0.203903,-0.709106,0.813583,10.024078
2019-01-28 22:48:44:4844,0.202026,-0.090286,-0.203903,-0.829941,0.839905,10.044418
2019-01-28 22:48:44:4844,0.202026,-0.090286,-0.203903,-0.906509,0.949982,9.930756
2019-01-28 22:48:44:4844,0.202026,-0.090286,-0.203903,-0.766525,1.026550,9.698654
2019-01-28 22:48:44:4844,0.202026,-0.090286,-0.203903,-0.579895,1.006210,9.632858
2019-01-28 22:48:44:4844,0.202026,-0.090286,-0.203903,-0.607407,0.940399,9.559860
2019-01-28 22:48:44:4844,0.202026,-0.090286,-0.203903,-0.809601,0.999023,9.526367
2019-01-28 22:48:44:4844,0.202026,-0.090286,-0.203903,-0.701935,1.015778,9.611313
2019-01-28 22:48:44:4844,0.202026,-0.090286,-0.203903,-0.523666,0.948776,9.660370
2019-01-28 22:48:44:4844,0.202026,-0.090286,-0.203903,-0.660049,0.969116,9.490479
2019-01-28 22:48:44:4844,0.202026,-0.090286,-0.203903,-0.544006,1.140213,9.373230
2019-01-28 22:48:44:4844,0.202026,-0.090286,-0.203903,-0.475800,1.234726,9.349304
2019-01-28 22:48:44:4844,0.202026,-0.090286,-0.203903,-0.320267,1.319672,9.534744
2019-01-28 22:48:44:4844,0.202026,-0.090286,-0.203903,-0.253281,1.281372,9.836243
2019-01-28 22:48:44:4844,0.202026,-0.090286,-0.203903,-0.308304,1.324463,10.069534
2019-01-28 22:48:44:4844,0.202026,-0.090286,-0.203903,-0.360947,1.398636,10.196365
2019-01-28 22:48:44:4844,0.202026,-0.090286,-0.203903,-0.231735,1.478790,9.998962
2019-01-28 22:48:44:4844,0.202026,-0.090286,-0.203903,-0.322662,1.560150,9.729767
2019-01-28 22:48:44:4844,0.202026,-0.090286,-0.203903,-0.424362,1.606812,9.611313
2019-01-28 22:48:44:4844,0.202026,-0.090286,-0.203903,-0.228149,1.695343,9.355286
2019-01-28 22:48:44:4844,0.202026,-0.090286,-0.203903,0.032669,1.726456,8.818100
2019-01-28 22:48:44:4844,0.202026,-0.090286,-0.203903,0.137955,1.476395,9.015503
2019-01-28 22:48:44:4844,0.202026,-0.090286,-0.203903,0.053009,1.479996,9.364853
2019-01-28 22:48:44:4844,0.202026,-0.090286,-0.203903,-0.128845,1.567322,9.333740
2019-01-28 22:48:44:4844,0.202026,-0.090286,-0.203903,-0.183884,1.458450,9.914001
2019-01-28 22:48:44:4844,0.202026,-0.090286,-0.203903,-0.488968,1.278992,10.773041
2019-01-28 22:48:44:4844,0.202026,-0.090286,-0.203903,-0.316681,1.314880,10.896271
2019-01-28 22:48:44:4844,0.202026,-0.090286,-0.203903,-0.383682,1.867615,9.082504
2019-01-28 22:48:44:4844,0.202026,-0.090286,-0.203903,-0.051086,1.694153,8.160065
2019-01-28 22:48:44:4844,0.202026,-0.090286,-0.203903,-0.524857,1.079193,9.163864
2019-01-28 22:48:44:4844,0.202026,-0.090286,-0.203903,-0.807205,1.121063,10.077927
2019-01-28 22:48:44:4844,0.202026,-0.090286,-0.203903,-0.526062,0.865036,9.905640
2019-01-28 22:48:44:4844,0.202026,-0.090286,-0.203903,-0.095352,0.772903,9.605331
2019-01-28 22:48:44:4844,0.202026,-0.090286,-0.203903,-0.481796,0.515671,9.699844
2019-01-28 22:48:44:4844,0.202026,-0.090286,-0.203903,-0.588272,0.553970,10.221481
2019-01-28 22:48:44:4844,0.202026,-0.090286,-0.203903,-0.072617,0.491760,10.122177
2019-01-28 22:48:44:4844,0.202026,-0.090286,-0.203903,-0.040314,0.832733,10.150894
2019-01-28 22:48:44:4844,0.202026,-0.090286,-0.203903,-0.776108,1.267029,9.677124
2019-01-28 22:48:44:4844,0.202026,-0.090286,-0.203903,-1.075211,1.459656,9.500046
2019-01-28 22:48:44:4844,0.202026,-0.090286,-0.203903,-1.115891,1.436920,9.795563
2019-01-28 22:48:44:4844,0.202026,-0.090286,-0.203903,-0.789261,1.544586,9.963058
2019-01-28 22:48:44:4844,0.202026,-0.090286,-0.203903,-0.601425,1.450073,9.456985
2019-01-28 22:48:44:4844,0.202026,-0.090286,-0.203903,-0.436325,1.312485,8.857574
2019-01-28 22:48:44:4844,0.202026,-0.090286,-0.203903,-0.010406,1.131836,8.837234
2019-01-28 22:48:44:4844,0.202026,-0.090286,-0.203903,0.470566,1.033722,9.148300
2019-01-28 22:48:44:4844,0.202026,-0.090286,-0.203903,0.731384,1.054062,9.078918
2019-01-28 22:48:44:4844,0.202026,-0.090286,-0.203903,0.492096,0.915283,9.515610
2019-01-28 22:48:44:4844,0.202026,-0.090286,-0.203903,0.011139,0.746582,10.873535
2019-01-28 22:48:44:4844,0.202026,-0.090286,-0.203903,-0.139618,0.768127,11.981415
2019-01-28 22:48:44:4844,0.202026,-0.090286,-0.203903,0.091309,0.994247,11.922791
2019-01-28 22:48:44:4844,0.202026,-0.090286,-0.203903,0.292297,1.215576,10.611511
2019-01-28 22:48:44:4844,0.202026,-0.090286,-0.203903,0.172653,1.379486,9.657974
2019-01-28 22:48:44:4844,0.202026,-0.090286,-0.203903,-0.417191,0.952377,9.539536
2019-01-28 22:48:44:4844,0.202026,-0.090286,-0.203903,-0.554764,0.715485,10.349503
2019-01-28 22:48:44:4844,0.202026,-0.090286,-0.203903,-0.028351,0.508499,10.412918
2019-01-28 22:48:44:4844,0.202026,-0.090286,-0.203903,0.465775,0.160339,9.517990
2019-01-28 22:48:44:4844,0.202026,-0.090286,-0.203903,0.646439,0.065826,9.381607
2019-01-28 22:48:44:4844,0.202026,-0.090286,-0.203903,0.331772,0.430740,9.374435
2019-01-28 22:48:44:4844,0.202026,-0.090286,-0.203903,-0.159958,1.391449,9.102844
2019-01-28 22:48:44:4844,0.202026,-0.090286,-0.203903,-0.870621,2.458649,8.325180
2019-01-28 22:48:44:4844,0.202026,-0.090286,-0.203903,-1.647095,3.119080,7.527161
2019-01-28 22:48:44:4844,0.202026,-0.090286,-0.203903,-2.272827,3.077194,8.030853
2019-01-28 22:48:44:4844,0.202026,-0.090286,-0.203903,-1.710510,2.726654,9.456985
2019-01-28 22:48:44:4844,0.202026,-0.090286,-0.203903,-0.567932,2.055466,10.040833
2019-01-28 22:48:44:4844,0.202026,-0.090286,-0.203903,0.100876,1.502716,9.797958
2019-01-28 22:48:44:4844,0.202026,-0.090286,-0.203903,0.513641,1.228745,9.671143
2019-01-28 22:48:44:4844,0.202026,-0.090286,-0.203903,0.342545,1.155762,9.535950
2019-01-28 22:48:44:4844,0.202026,-0.090286,-0.203903,-0.124054,0.977493,9.415100
2019-01-28 22:48:44:4844,0.189011,0.159836,-0.191132,-0.124054,0.977493,9.415100
2019-01-28 22:48:44:4844,0.189011,0.159836,-0.191132,-0.133636,0.932037,10.087494
2019-01-28 22:48:44:4844,0.189011,0.159836,-0.191132,-0.235321,0.928452,10.603149
2019-01-28 22:48:44:4844,0.189011,0.159836,-0.191132,-0.593048,1.144989,10.525375
2019-01-28 22:48:44:4844,0.189011,0.159836,-0.191132,-0.851486,1.441696,10.164063
2019-01-28 22:48:44:4844,0.189011,0.159836,-0.191132,-1.020172,1.566132,9.580215
2019-01-28 22:48:44:4844,0.189011,0.159836,-0.191132,-0.929245,1.852066,9.318192
2019-01-28 22:48:44:4844,0.189011,0.159836,-0.191132,-0.691162,2.268433,8.803741
2019-01-28 22:48:44:4844,0.189011,0.159836,-0.191132,-0.506912,2.504120,8.426865
2019-01-28 22:48:44:4844,0.189011,0.159836,-0.191132,-0.305908,2.367722,8.650604
2019-01-28 22:48:44:4844,0.189011,0.159836,-0.191132,-0.290359,1.843704,9.836243
2019-01-28 22:48:44:4844,-0.001205,-0.118698,-0.084854,-0.290359,1.843704,9.836243
2019-01-28 22:48:44:4844,-0.001205,-0.118698,-0.084854,-0.293961,1.367523,10.877121
2019-01-28 22:48:44:4844,-0.001205,-0.118698,-0.084854,-0.109711,1.399826,10.610321
2019-01-28 22:48:44:4844,-0.001205,-0.118698,-0.084854,-0.253265,1.530243,9.462967
2019-01-28 22:48:44:4844,-0.001205,-0.118698,-0.084854,-0.991470,1.399826,8.867142
2019-01-28 22:48:44:4844,-0.001205,-0.118698,-0.084854,-1.157761,1.094742,9.635239
2019-01-28 22:48:44:4844,-0.001205,-0.118698,-0.084854,-1.017776,0.715485,10.209518
2019-01-28 22:48:44:4844,-0.001205,-0.118698,-0.084854,-0.819183,0.659241,10.257370
2019-01-28 22:48:44:4844,-0.001205,-0.118698,-0.084854,-0.808411,0.690353,9.978622
2019-01-28 22:48:44:4844,-0.001205,-0.118698,-0.084854,-0.867035,0.799225,9.717804
2019-01-28 22:48:44:4844,-0.135590,-0.036423,0.025650,-0.867035,0.799225,9.717804
2019-01-28 22:48:44:4844,-0.135590,-0.036423,0.025650,-0.625366,1.115082,9.350494
2019-01-28 22:48:44:4844,-0.135590,-0.036423,0.025650,-0.237717,1.118668,8.785797
2019-01-28 22:48:44:4844,-0.135590,-0.036423,0.025650,0.031479,0.923660,9.038239
2019-01-28 22:48:44:4844,-0.135590,-0.036423,0.025650,0.182220,1.210800,9.459366
2019-01-28 22:48:44:4844,-0.135590,-0.036423,0.025650,0.452606,1.990860,8.815704
2019-01-28 22:48:44:4844,-0.135590,-0.036423,0.025650,0.368866,2.699127,7.135941
2019-01-28 22:48:44:4844,-0.135590,-0.036423,0.025650,0.365280,2.350967,6.727966
2019-01-28 22:48:44:4844,-0.135590,-0.036423,0.025650,0.983826,1.518265,8.815704
2019-01-28 22:48:44:4844,-0.135590,-0.036423,0.025650,1.556900,0.756165,10.952484
2019-01-28 22:48:44:4844,-0.135590,-0.036423,0.025650,1.652618,0.095749,12.627472
2019-01-28 22:48:44:4844,-0.431061,-0.307877,0.181656,1.652618,0.095749,12.627472
2019-01-28 22:48:44:4844,-0.431061,-0.307877,0.181656,1.290100,-0.276352,13.692276
2019-01-28 22:48:44:4844,-0.431061,-0.307877,0.181656,1.103470,-0.305069,13.167053
2019-01-28 22:48:44:4844,-0.431061,-0.307877,0.181656,0.781631,-0.016724,11.843826
2019-01-28 22:48:44:4844,-0.431061,-0.307877,0.181656,0.790009,0.291946,10.416504
2019-01-28 22:48:44:4844,-0.431061,-0.307877,0.181656,0.347336,0.405609,9.273926
2019-01-28 22:48:44:4844,-0.431061,-0.307877,0.181656,0.341354,0.857849,8.596756
2019-01-28 22:48:44:4844,-0.431061,-0.307877,0.181656,0.045837,1.118668,7.302246
2019-01-28 22:48:44:4844,-0.431061,-0.307877,0.181656,0.006363,1.073196,6.983994
2019-01-28 22:48:44:4844,-0.431061,-0.307877,0.181656,0.036270,0.897339,7.374023
2019-01-28 22:48:44:4844,0.379227,0.045685,-0.055588,0.036270,0.897339,7.374023
2019-01-28 22:48:44:4844,0.379227,0.045685,-0.055588,-0.076202,0.942795,8.290482
2019-01-28 22:48:44:4844,0.379227,0.045685,-0.055588,-0.086975,1.209595,9.037033
2019-01-28 22:48:44:4844,0.379227,0.045685,-0.055588,-0.008011,1.444092,9.500046
2019-01-28 22:48:44:4844,0.379227,0.045685,-0.055588,0.246841,1.404617,9.893677
2019-01-28 22:48:44:4844,0.379227,0.045685,-0.055588,0.907257,1.001419,10.857986
2019-01-28 22:48:44:4844,0.379227,0.045685,-0.055588,1.573654,0.476196,11.593765
2019-01-28 22:48:44:4844,0.379227,0.045685,-0.055588,1.706451,0.084961,12.445618
2019-01-28 22:48:44:4844,0.379227,0.045685,-0.055588,0.787613,0.111298,12.875122
2019-01-28 22:48:44:4844,0.379227,0.045685,-0.055588,-0.011597,0.777695,12.168045
2019-01-28 22:48:44:4844,0.379227,0.045685,-0.055588,-0.578705,1.844894,10.247803
2019-01-28 22:48:45:4845,0.372696,0.107254,-0.231033,-0.578705,1.844894,10.247803
2019-01-28 22:48:45:4845,0.372696,0.107254,-0.231033,-1.123062,2.852264,8.346710
2019-01-28 22:48:45:4845,0.372696,0.107254,-0.231033,-1.292953,3.710098,6.548508
2019-01-28 22:48:45:4845,0.372696,0.107254,-0.231033,-0.656464,3.445694,5.922775
2019-01-28 22:48:45:4845,0.372696,0.107254,-0.231033,-0.065445,2.163147,7.990189
2019-01-28 22:48:45:4845,0.372696,0.107254,-0.231033,0.312637,1.122253,11.086487
2019-01-28 22:48:45:4845,0.372696,0.107254,-0.231033,0.752914,0.441498,12.298462
2019-01-28 22:48:45:4845,0.372696,0.107254,-0.231033,0.544739,0.376892,12.237442
2019-01-28 22:48:45:4845,0.372696,0.107254,-0.231033,-0.055862,1.050476,11.319794
2019-01-28 22:48:45:4845,0.372696,0.107254,-0.231033,-0.521271,2.215775,9.120789
2019-01-28 22:48:45:4845,0.372696,0.107254,-0.231033,-0.780884,3.127441,6.513809
2019-01-28 22:48:45:4845,0.015411,0.064545,0.055832,-0.780884,3.127441,6.513809
2019-01-28 22:48:45:4845,0.015411,0.064545,0.055832,-0.855072,3.530640,5.033844
2019-01-28 22:48:45:4845,0.015411,0.064545,0.055832,-1.087173,3.339218,5.927567
2019-01-28 22:48:45:4845,0.015411,0.064545,0.055832,-0.447098,2.696747,8.708023
2019-01-28 22:48:45:4845,0.015411,0.064545,0.055832,0.864182,1.389053,11.575821
2019-01-28 22:48:45:4845,0.015411,0.064545,0.055832,1.924194,-0.093307,14.435242
2019-01-28 22:48:45:4845,0.015411,0.064545,0.055832,2.515228,-0.701080,15.620895
2019-01-28 22:48:45:4845,0.015411,0.064545,0.055832,1.914627,-0.192612,14.193573
2019-01-28 22:48:45:4845,0.015411,0.064545,0.055832,1.054413,1.280182,10.664154
2019-01-28 22:48:45:4845,0.015411,0.064545,0.055832,0.159500,2.748184,6.873932
2019-01-28 22:48:45:4845,0.210831,-0.028793,-0.166031,0.159500,2.748184,6.873932
2019-01-28 22:48:45:4845,0.210831,-0.028793,-0.166031,-0.193451,3.606003,4.052795
2019-01-28 22:48:45:4845,0.210831,-0.028793,-0.166031,-0.400436,3.701721,3.575424
2019-01-28 22:48:45:4845,0.210831,-0.028793,-0.166031,-0.232941,3.427750,4.488281
2019-01-28 22:48:45:4845,0.210831,-0.028793,-0.166031,-0.101334,2.790054,6.719589
2019-01-28 22:48:45:4845,0.210831,-0.028793,-0.166031,0.268372,2.170319,8.788177
2019-01-28 22:48:45:4845,0.210831,-0.028793,-0.166031,1.221909,0.903320,11.420288
2019-01-28 22:48:45:4845,0.210831,-0.028793,-0.166031,1.595184,-0.196198,14.636246
2019-01-28 22:48:45:4845,0.210831,-0.028793,-0.166031,1.328384,0.419968,16.288498
2019-01-28 22:48:45:4845,0.210831,-0.028793,-0.166031,0.281525,1.139008,14.676926
2019-01-28 22:48:45:4845,0.210831,-0.028793,-0.166031,-0.601425,1.365128,12.404938
2019-01-28 22:48:45:4845,-0.434738,0.012619,-0.212463,-0.601425,1.365128,12.404938
2019-01-28 22:48:45:4845,-0.434738,0.012619,-0.212463,-0.755768,2.298325,9.552689
2019-01-28 22:48:45:4845,-0.434738,0.012619,-0.212463,-0.770126,3.224350,6.516205
2019-01-28 22:48:45:4845,-0.434738,0.012619,-0.212463,-0.631332,3.061646,5.270737
2019-01-28 22:48:45:4845,-0.434738,0.012619,-0.212463,-0.024765,1.818573,6.684906
2019-01-28 22:48:45:4845,-0.434738,0.012619,-0.212463,0.654800,0.290756,9.608932
2019-01-28 22:48:45:4845,-0.434738,0.012619,-0.212463,1.676544,-1.109055,12.087891
2019-01-28 22:48:45:4845,-0.434738,0.012619,-0.212463,2.070160,-1.428497,12.660965
2019-01-28 22:48:45:4845,-0.434738,0.012619,-0.212463,1.462387,-0.425903,10.868744
2019-01-28 22:48:45:4845,-0.434738,0.012619,-0.212463,0.492096,1.086365,7.816696
2019-01-28 22:48:45:4845,-0.088745,-0.148758,-0.325714,0.492096,1.086365,7.816696
2019-01-28 22:48:45:4845,-0.088745,-0.148758,-0.325714,-0.544006,2.132034,6.102234
2019-01-28 22:48:45:4845,-0.088745,-0.148758,-0.325714,-0.710312,2.238510,6.674133
2019-01-28 22:48:45:4845,-0.088745,-0.148758,-0.325714,-0.479401,1.685776,8.351501
2019-01-28 22:48:45:4845,-0.088745,-0.148758,-0.325714,-0.518875,1.153366,9.752487
2019-01-28 22:48:45:4845,-0.088745,-0.148758,-0.325714,-0.303528,0.812393,10.789780
2019-01-28 22:48:45:4845,-0.088745,-0.148758,-0.325714,0.187012,0.543198,10.706039
2019-01-28 22:48:45:4845,-0.088745,-0.148758,-0.325714,-0.339417,0.899719,10.347107
2019-01-28 22:48:45:4845,-0.088745,-0.148758,-0.325714,-0.677994,1.623550,9.837433
2019-01-28 22:48:45:4845,-0.088745,-0.148758,-0.325714,-0.473419,1.414185,9.258377
2019-01-28 22:48:45:4845,-0.088745,-0.148758,-0.325714,-0.321472,0.818375,9.456985
2019-01-28 22:48:46:4846,0.030746,-0.012177,-0.003113,-0.321472,0.818375,9.456985
2019-01-28 22:48:46:4846,0.030746,-0.012177,-0.003113,0.009949,0.789658,9.367249
2019-01-28 22:48:46:4846,0.030746,-0.012177,-0.003113,0.294693,1.332825,7.882492
2019-01-28 22:48:46:4846,0.030746,-0.012177,-0.003113,0.222900,1.957352,6.495865
2019-01-28 22:48:46:4846,0.030746,-0.012177,-0.003113,0.258804,2.227737,6.363052
2019-01-28 22:48:46:4846,0.030746,-0.012177,-0.003113,0.494492,2.023163,7.959076
2019-01-28 22:48:46:4846,0.030746,-0.012177,-0.003113,0.819916,1.663040,10.130569
2019-01-28 22:48:46:4846,0.030746,-0.012177,-0.003113,1.107056,1.182083,12.098663
2019-01-28 22:48:46:4846,0.030746,-0.012177,-0.003113,1.469559,0.801620,12.962463
2019-01-28 22:48:46:4846,0.030746,-0.012177,-0.003113,1.791397,0.581482,12.629868
2019-01-28 22:48:46:4846,-0.112991,0.020935,-0.027802,1.791397,0.581482,12.629868
2019-01-28 22:48:46:4846,-0.112991,0.020935,-0.027802,1.160889,0.418777,12.239838
2019-01-28 22:48:46:4846,-0.112991,0.020935,-0.027802,-0.142014,0.528839,11.923981
2019-01-28 22:48:46:4846,-0.112991,0.020935,-0.027802,-1.200836,0.841110,11.914413
2019-01-28 22:48:46:4846,-0.112991,0.020935,-0.027802,-1.857666,1.428543,10.555283
2019-01-28 22:48:46:4846,-0.112991,0.020935,-0.027802,-1.730850,2.225357,7.642029
2019-01-28 22:48:46:4846,-0.112991,0.020935,-0.027802,-1.247498,2.207397,6.324768
2019-01-28 22:48:46:4846,-0.112991,0.020935,-0.027802,-0.219772,1.422562,7.472137
2019-01-28 22:48:46:4846,-0.112991,0.020935,-0.027802,0.384415,0.964325,9.447403
2019-01-28 22:48:46:4846,-0.112991,0.020935,-0.027802,0.671570,0.902115,10.356674
2019-01-28 22:48:46:4846,-0.112991,0.020935,-0.027802,0.721802,0.613785,10.737137
2019-01-28 22:48:46:4846,0.142899,0.003281,-0.104340,0.721802,0.613785,10.737137
2019-01-28 22:48:46:4846,0.142899,0.003281,-0.104340,0.675140,0.229736,11.051804
2019-01-28 22:48:46:4846,0.142899,0.003281,-0.104340,0.263580,-0.050232,11.664352
2019-01-28 22:48:46:4846,0.142899,0.003281,-0.104340,-0.170715,-0.194992,11.736145
2019-01-28 22:48:46:4846,0.142899,0.003281,-0.104340,-0.948395,0.346985,10.924973
2019-01-28 22:48:46:4846,0.142899,0.003281,-0.104340,-1.367126,1.349579,8.959274
2019-01-28 22:48:46:4846,0.142899,0.003281,-0.104340,-1.605225,2.276794,6.576019
2019-01-28 22:48:46:4846,0.142899,0.003281,-0.104340,-1.467636,2.248077,6.001740
2019-01-28 22:48:46:4846,0.142899,0.003281,-0.104340,-0.614594,1.718079,7.547501
2019-01-28 22:48:46:4846,0.142899,0.003281,-0.104340,-0.299942,1.428543,8.955688
2019-01-28 22:48:46:4846,0.062027,-0.227493,0.259415,-0.299942,1.428543,8.955688
2019-01-28 22:48:46:4846,0.062027,-0.227493,0.259415,-0.151581,1.657059,9.623291
2019-01-28 22:48:46:4846,0.062027,-0.227493,0.259415,-0.267624,1.865234,9.506027
2019-01-28 22:48:46:4846,0.062027,-0.227493,0.259415,-0.564346,1.911896,10.140137
2019-01-28 22:48:46:4846,0.062027,-0.227493,0.259415,-0.730637,1.627151,11.897659
2019-01-28 22:48:46:4846,0.062027,-0.227493,0.259415,-0.198242,1.116272,13.047409
2019-01-28 22:48:46:4846,0.062027,-0.227493,0.259415,0.349731,0.575500,12.926575
2019-01-28 22:48:46:4846,0.062027,-0.227493,0.259415,0.852219,0.616180,11.301849
2019-01-28 22:48:46:4846,0.062027,-0.227493,0.259415,0.472946,1.350769,9.302643
2019-01-28 22:48:46:4846,0.062027,-0.227493,0.259415,0.417923,2.246887,7.461365
2019-01-28 22:48:46:4846,0.109726,-0.207336,0.314575,0.417923,2.246887,7.461365
2019-01-28 22:48:46:4846,0.109726,-0.207336,0.314575,0.060196,2.877396,6.489883
2019-01-28 22:48:46:4846,0.109726,-0.207336,0.314575,0.060196,2.699127,7.360870
2019-01-28 22:48:46:4846,0.109726,-0.207336,0.314575,0.376038,1.828140,9.178223
2019-01-28 22:48:46:4846,0.109726,-0.207336,0.314575,0.377243,0.897339,11.197754
2019-01-28 22:48:46:4846,0.109726,-0.207336,0.314575,0.402359,1.057663,12.040024
2019-01-28 22:48:46:4846,0.109726,-0.207336,0.314575,0.303070,1.915482,10.891479
2019-01-28 22:48:46:4846,0.109726,-0.207336,0.314575,0.175049,2.616577,9.559875
2019-01-28 22:48:46:4846,0.109726,-0.207336,0.314575,-0.122864,2.623764,9.992966
2019-01-28 22:48:46:4846,0.109726,-0.207336,0.314575,0.349731,2.486160,10.442825
2019-01-28 22:48:46:4846,0.109726,-0.207336,0.314575,0.787613,2.126053,9.965454
2019-01-28 22:48:46:4846,0.134399,-0.032639,0.268951,0.787613,2.126053,9.965454
2019-01-28 22:48:47:4847,0.134399,-0.032639,0.268951,1.110641,1.454865,9.496460
2019-01-28 22:48:47:4847,0.134399,-0.032639,0.268951,1.201569,1.014587,9.519196
2019-01-28 22:48:47:4847,0.134399,-0.032639,0.268951,1.428894,0.912888,9.778824
2019-01-28 22:48:47:4847,0.134399,-0.032639,0.268951,1.119019,0.984665,9.605331
2019-01-28 22:48:47:4847,0.134399,-0.032639,0.268951,0.943146,1.142609,8.955688
2019-01-28 22:48:47:4847,0.134399,-0.032639,0.268951,0.843842,1.708496,7.655182
2019-01-28 22:48:47:4847,0.134399,-0.032639,0.268951,0.330582,2.404816,6.364258
2019-01-28 22:48:47:4847,0.134399,-0.032639,0.268951,0.370071,2.523254,6.522186
2019-01-28 22:48:47:4847,0.134399,-0.032639,0.268951,0.455017,1.750366,8.467545
2019-01-28 22:48:47:4847,-0.176025,-0.040756,0.276215,0.455017,1.750366,8.467545
2019-01-28 22:48:47:4847,-0.176025,-0.040756,0.276215,0.959900,1.099533,10.874725
2019-01-28 22:48:47:4847,-0.176025,-0.040756,0.276215,1.108246,1.073212,12.194366
2019-01-28 22:48:47:4847,-0.176025,-0.040756,0.276215,0.877350,1.273010,11.596161
2019-01-28 22:48:47:4847,-0.176025,-0.040756,0.276215,0.360489,1.647491,10.804138
2019-01-28 22:48:47:4847,-0.176025,-0.040756,0.276215,-0.082184,1.783875,10.607925
2019-01-28 22:48:47:4847,-0.176025,-0.040756,0.276215,0.105652,1.095947,10.810120
2019-01-28 22:48:47:4847,-0.176025,-0.040756,0.276215,0.350922,0.409195,11.047012
2019-01-28 22:48:47:4847,-0.176025,-0.040756,0.276215,0.633270,0.540802,10.100647
2019-01-28 22:48:47:4847,-0.176025,-0.040756,0.276215,0.367676,1.373505,7.573822
2019-01-28 22:48:47:4847,-0.176025,-0.040756,0.276215,-0.000839,2.114090,5.458572
2019-01-28 22:48:47:4847,-0.056854,0.091187,0.308105,-0.000839,2.114090,5.458572
2019-01-28 22:48:47:4847,-0.056854,0.091187,0.308105,-0.084579,2.441895,4.863953
2019-01-28 22:48:47:4847,-0.056854,0.091187,0.308105,-0.309509,1.922668,6.805725
2019-01-28 22:48:47:4847,-0.056854,0.091187,0.308105,0.141556,1.307709,9.741730
2019-01-28 22:48:47:4847,-0.056854,0.091187,0.308105,0.877335,0.894943,11.947906
2019-01-28 22:48:47:4847,-0.056854,0.091187,0.308105,1.213531,0.765732,11.977814
2019-01-28 22:48:47:4847,-0.056854,0.091187,0.308105,1.263779,0.721466,11.122391
2019-01-28 22:48:47:4847,-0.056854,0.091187,0.308105,0.949127,0.644882,10.947708
2019-01-28 22:48:47:4847,-0.056854,0.091187,0.308105,0.587814,0.760941,11.092484
2019-01-28 22:48:47:4847,-0.056854,0.091187,0.308105,0.273163,1.069626,10.415314
2019-01-28 22:48:47:4847,-0.089539,0.072433,0.184647,0.273163,1.069626,10.415314
2019-01-28 22:48:47:4847,-0.089539,0.072433,0.184647,-0.055862,1.069626,9.410324
2019-01-28 22:48:47:4847,-0.089539,0.072433,0.184647,0.188202,0.973907,9.528763
2019-01-28 22:48:47:4847,-0.089539,0.072433,0.184647,0.604553,1.075607,10.451202
2019-01-28 22:48:47:4847,-0.089539,0.072433,0.184647,1.217117,1.049286,10.305237
2019-01-28 22:48:47:4847,-0.089539,0.072433,0.184647,0.983826,0.357758,9.880508
2019-01-28 22:48:47:4847,-0.089539,0.072433,0.184647,0.993393,0.283585,10.563660
2019-01-28 22:48:47:4847,-0.089539,0.072433,0.184647,0.660782,1.112686,9.613708
2019-01-28 22:48:47:4847,-0.089539,0.072433,0.184647,0.547134,1.204819,9.300247
2019-01-28 22:48:47:4847,-0.089539,0.072433,0.184647,0.480133,0.647293,8.126572
2019-01-28 22:48:47:4847,-0.089539,0.072433,0.184647,0.530380,0.157959,8.083496
2019-01-28 22:48:47:4847,-0.089539,0.072433,0.184647,0.011139,-0.259598,7.527176
2019-01-28 22:48:47:4847,-0.089539,0.072433,0.184647,0.403564,0.265640,7.515198
2019-01-28 22:48:47:4847,-0.089539,0.072433,0.184647,0.579437,0.940399,9.083694
2019-01-28 22:48:47:4847,-0.089539,0.072433,0.184647,0.800766,1.379486,11.234848
2019-01-28 22:48:47:4847,-0.089539,0.072433,0.184647,1.529388,1.093552,11.934753
2019-01-28 22:48:47:4847,-0.089539,0.072433,0.184647,1.302063,0.856659,11.219284
2019-01-28 22:48:47:4847,-0.089539,0.072433,0.184647,0.947922,0.826752,10.929764
2019-01-28 22:48:47:4847,-0.089539,0.072433,0.184647,0.938354,0.915283,9.972626
2019-01-28 22:48:47:4847,-0.089539,0.072433,0.184647,0.477737,0.865021,9.458176
2019-01-28 22:48:47:4847,0.128052,0.200653,0.026688,0.477737,0.865021,9.458176
2019-01-28 22:48:47:4847,0.128052,0.200653,0.026688,-0.136032,0.996643,9.662766
2019-01-28 22:48:47:4847,0.128052,0.200653,0.026688,-0.357361,1.369919,9.281113
2019-01-28 22:48:47:4847,0.128052,0.200653,0.026688,0.067368,1.664230,8.826462
2019-01-28 22:48:47:4847,0.128052,0.200653,0.026688,0.299469,1.860443,8.953293
2019-01-28 22:48:47:4847,0.128052,0.200653,0.026688,0.770859,1.371109,9.814697
2019-01-28 22:48:47:4847,0.128052,0.200653,0.026688,0.983826,0.904510,11.069748
2019-01-28 22:48:47:4847,0.128052,0.200653,0.026688,1.090302,0.982285,11.340134
2019-01-28 22:48:47:4847,0.128052,0.200653,0.026688,0.983826,0.981079,11.055389
2019-01-28 22:48:47:4847,0.128052,0.200653,0.026688,1.002960,0.520462,10.424881
2019-01-28 22:48:48:4848,-0.209259,0.012024,0.084900,1.002960,0.520462,10.424881
2019-01-28 22:48:48:4848,-0.209259,0.012024,0.084900,0.645233,0.454666,9.873337
2019-01-28 22:48:48:4848,-0.209259,0.012024,0.084900,0.197784,0.915283,9.407928
2019-01-28 22:48:48:4848,-0.209259,0.012024,0.084900,-0.076202,1.117477,8.891083
2019-01-28 22:48:48:4848,-0.209259,0.012024,0.084900,-0.494949,1.385468,7.752090
2019-01-28 22:48:48:4848,-0.209259,0.012024,0.084900,0.153503,1.143799,8.627869
2019-01-28 22:48:48:4848,-0.209259,0.012024,0.084900,1.043640,0.478592,10.247803
2019-01-28 22:48:48:4848,-0.209259,0.012024,0.084900,1.774658,0.070618,10.990784
2019-01-28 22:48:48:4848,-0.209259,0.012024,0.084900,1.424103,0.634125,10.518204
2019-01-28 22:48:48:4848,-0.209259,0.012024,0.084900,0.929993,0.638901,10.390182
2019-01-28 22:48:48:4848,-0.209259,0.012024,0.084900,1.059189,0.038315,11.208527
2019-01-28 22:48:48:4848,-0.209259,0.012024,0.084900,0.871353,-0.270370,11.620087
2019-01-28 22:48:48:4848,-0.209259,0.012024,0.084900,0.538757,-0.608948,10.624680
2019-01-28 22:48:48:4848,-0.209259,0.012024,0.084900,0.206146,-0.947540,9.629257
2019-01-28 22:48:48:4848,-0.209259,0.012024,0.084900,0.490891,-1.253815,9.105225
2019-01-28 22:48:48:4848,-0.209259,0.012024,0.084900,0.799576,-1.076752,8.499847
2019-01-28 22:48:48:4848,-0.209259,0.012024,0.084900,0.419113,-0.899673,8.167252
2019-01-28 22:48:48:4848,-0.209259,0.012024,0.084900,0.172653,-0.641251,8.557281
2019-01-28 22:48:48:4848,-0.209259,0.012024,0.084900,0.160690,-0.428299,9.009521
2019-01-28 22:48:48:4848,-0.209259,0.012024,0.084900,0.423904,-0.275146,9.476120
2019-01-28 22:48:48:4848,0.101898,0.083862,-0.174957,0.423904,-0.275146,9.476120
2019-01-28 22:48:48:4848,0.101898,0.083862,-0.174957,0.428680,-0.004761,10.119781
2019-01-28 22:48:48:4848,0.101898,0.083862,-0.174957,0.512436,0.253662,10.452393
2019-01-28 22:48:48:4848,0.101898,0.083862,-0.174957,0.603363,-0.131577,9.732147
2019-01-28 22:48:48:4848,0.101898,0.083862,-0.174957,0.723007,-0.344543,9.332550
2019-01-28 22:48:48:4848,0.101898,0.083862,-0.174957,0.730179,-0.320618,8.849197
2019-01-28 22:48:48:4848,0.101898,0.083862,-0.174957,0.744537,-0.122009,8.652985
2019-01-28 22:48:48:4848,0.101898,0.083862,-0.174957,0.821106,-0.282333,8.928162
2019-01-28 22:48:48:4848,0.101898,0.083862,-0.174957,0.919205,-0.081329,9.861359
2019-01-28 22:48:48:4848,0.101898,0.083862,-0.174957,1.036453,0.507294,10.246613
2019-01-28 22:48:48:4848,0.240143,0.002914,-0.339401,1.036453,0.507294,10.246613
2019-01-28 22:48:48:4848,0.240143,0.002914,-0.339401,1.069962,0.526443,10.191574
2019-01-28 22:48:48:4848,0.240143,0.002914,-0.339401,1.050812,0.660446,10.842422
2019-01-28 22:48:48:4848,0.240143,0.002914,-0.339401,0.388000,1.021759,11.086487
2019-01-28 22:48:48:4848,0.240143,0.002914,-0.339401,0.687103,0.595840,10.476318
2019-01-28 22:48:48:4848,0.240143,0.002914,-0.339401,0.242050,0.473801,10.263351
2019-01-28 22:48:48:4848,0.240143,0.002914,-0.339401,-0.162338,1.043289,9.914001
2019-01-28 22:48:48:4848,0.240143,0.002914,-0.339401,-0.143204,1.000229,9.145905
2019-01-28 22:48:48:4848,0.240143,0.002914,-0.339401,0.579437,0.299118,9.241623
2019-01-28 22:48:48:4848,0.240143,0.002914,-0.339401,0.639252,0.201019,9.657974
2019-01-28 22:48:48:4848,0.192368,-0.052185,-0.105194,0.639252,0.201019,9.657974
2019-01-28 22:48:48:4848,0.192368,-0.052185,-0.105194,0.330582,0.827942,8.834839
2019-01-28 22:48:48:4848,0.192368,-0.052185,-0.105194,0.299469,0.681976,8.571625
2019-01-28 22:48:48:4848,0.192368,-0.052185,-0.105194,0.388000,0.619766,9.279907
2019-01-28 22:48:48:4848,0.192368,-0.052185,-0.105194,0.634460,0.722656,10.440430
2019-01-28 22:48:48:4848,0.192368,-0.052185,-0.105194,0.218109,1.392639,9.849396
2019-01-28 22:48:48:4848,0.192368,-0.052185,-0.105194,0.100861,1.406998,9.040619
2019-01-28 22:48:48:4848,0.192368,-0.052185,-0.105194,0.005157,0.701126,9.330154
2019-01-28 22:48:48:4848,0.192368,-0.052185,-0.105194,0.201370,0.492950,9.612503
2019-01-28 22:48:48:4848,0.192368,-0.052185,-0.105194,0.230072,0.569519,9.382797
2019-01-28 22:48:48:4848,-0.116470,-0.014801,0.068405,0.230072,0.569519,9.382797
2019-01-28 22:48:49:4849,-0.116470,-0.014801,0.068405,0.380829,0.713089,9.595764
2019-01-28 22:48:49:4849,-0.116470,-0.014801,0.068405,0.481323,1.067215,9.880508
2019-01-28 22:48:49:4849,-0.116470,-0.014801,0.068405,0.577042,1.131821,9.909225
2019-01-28 22:48:49:4849,-0.116470,-0.014801,0.068405,0.813934,0.495331,10.107819
2019-01-28 22:48:49:4849,-0.116470,-0.014801,0.068405,0.847427,0.169907,10.387787
2019-01-28 22:48:49:4849,-0.116470,-0.014801,0.068405,0.584213,0.387665,10.002533
2019-01-28 22:48:49:4849,-0.116470,-0.014801,0.068405,0.873749,0.428345,10.423676
2019-01-28 22:48:49:4849,-0.116470,-0.014801,0.068405,0.734970,0.315872,11.198944
2019-01-28 22:48:49:4849,-0.116470,-0.014801,0.068405,0.713425,0.239304,10.873520
2019-01-28 22:48:49:4849,0.084137,-0.079056,0.096024,0.713425,0.239304,10.873520
2019-01-28 22:48:49:4849,0.084137,-0.079056,0.096024,0.720612,0.028732,10.069534
2019-01-28 22:48:49:4849,0.084137,-0.079056,0.096024,0.665573,0.253662,8.976013
2019-01-28 22:48:49:4849,0.084137,-0.079056,0.096024,0.526794,0.378082,8.487885
2019-01-28 22:48:49:4849,0.084137,-0.079056,0.096024,0.428680,0.629333,9.196152
2019-01-28 22:48:49:4849,0.084137,-0.079056,0.096024,0.316223,1.081573,9.923584
2019-01-28 22:48:49:4849,0.084137,-0.079056,0.096024,0.364075,1.177292,10.024078
2019-01-28 22:48:49:4849,0.084137,-0.079056,0.096024,0.510040,1.203613,10.851990
2019-01-28 22:48:49:4849,0.084137,-0.079056,0.096024,0.531570,1.170120,10.471527
2019-01-28 22:48:49:4849,0.084137,-0.079056,0.096024,0.708649,1.074402,9.801544
2019-01-28 22:48:49:4849,-0.161911,0.005722,0.096252,0.708649,1.074402,9.801544
2019-01-28 22:48:49:4849,-0.161911,0.005722,0.096252,0.510040,0.583878,8.652985
2019-01-28 22:48:49:4849,-0.161911,0.005722,0.096252,0.409546,0.150772,8.358673
2019-01-28 22:48:49:4849,-0.161911,0.005722,0.096252,0.141541,0.107697,8.552490
2019-01-28 22:48:49:4849,-0.161911,0.005722,0.096252,0.213333,0.571915,8.516602
2019-01-28 22:48:49:4849,-0.161911,0.005722,0.096252,0.711029,0.789658,9.488083
2019-01-28 22:48:49:4849,-0.161911,0.005722,0.096252,0.739746,1.150970,9.969040
2019-01-28 22:48:49:4849,-0.161911,0.005722,0.096252,0.801971,0.708298,9.969040
2019-01-28 22:48:49:4849,-0.161911,0.005722,0.096252,0.677536,0.100525,9.806335
2019-01-28 22:48:49:4849,-0.161911,0.005722,0.096252,0.502869,-0.174652,9.799149
2019-01-28 22:48:49:4849,-0.125885,-0.085526,0.152817,0.502869,-0.174652,9.799149
2019-01-28 22:48:49:4849,-0.125885,-0.085526,0.152817,0.653610,0.512085,10.033646
2019-01-28 22:48:49:4849,-0.125885,-0.085526,0.152817,0.675140,1.328033,9.169830
2019-01-28 22:48:49:4849,-0.125885,-0.085526,0.152817,0.419113,1.072006,9.952286
2019-01-28 22:48:49:4849,-0.125885,-0.085526,0.152817,0.883316,-0.081329,12.203934
2019-01-28 22:48:49:4849,-0.125885,-0.085526,0.152817,1.010132,-0.366074,12.981598
2019-01-28 22:48:49:4849,-0.125885,-0.085526,0.152817,0.852219,0.033524,10.907028
2019-01-28 22:48:49:4849,-0.125885,-0.085526,0.152817,0.828278,0.014374,8.648209
2019-01-28 22:48:49:4849,-0.125885,-0.085526,0.152817,0.718216,0.143585,8.526169
2019-01-28 22:48:49:4849,-0.125885,-0.085526,0.152817,0.426285,0.591049,9.136337
2019-01-28 22:48:49:4849,-0.107666,-0.006119,0.224045,0.426285,0.591049,9.136337
2019-01-28 22:48:49:4849,-0.107666,-0.006119,0.224045,0.189407,0.966721,8.892273
2019-01-28 22:48:49:4849,-0.107666,-0.006119,0.224045,-0.016388,1.141403,9.459366
2019-01-28 22:48:49:4849,-0.107666,-0.006119,0.224045,-0.049881,1.342392,10.160461
2019-01-28 22:48:49:4849,-0.107666,-0.006119,0.224045,0.380829,1.019363,10.294464
2019-01-28 22:48:49:4849,-0.107666,-0.006119,0.224045,1.158493,0.038315,10.131760
2019-01-28 22:48:49:4849,-0.107666,-0.006119,0.224045,0.921600,-0.342148,9.868546
2019-01-28 22:48:49:4849,-0.107666,-0.006119,0.224045,0.079330,-0.153122,12.215897
2019-01-28 22:48:49:4849,-0.107666,-0.006119,0.224045,0.227692,0.538406,11.756485
2019-01-28 22:48:49:4849,-0.107666,-0.006119,0.224045,0.009933,1.373505,9.803940
2019-01-28 22:48:49:4849,0.604462,0.237732,0.066940,0.009933,1.373505,9.803940
2019-01-28 22:48:49:4849,0.604462,0.237732,0.066940,-0.085770,1.543396,7.992569
2019-01-28 22:48:49:4849,0.604462,0.237732,0.066940,0.629684,0.490555,7.674316
2019-01-28 22:48:49:4849,0.604462,0.237732,0.066940,1.084320,-0.504868,8.772629
2019-01-28 22:48:49:4849,0.604462,0.237732,0.066940,1.235062,-0.710648,9.574219
2019-01-28 22:48:49:4849,0.604462,0.237732,0.066940,1.113037,0.067017,8.002136
2019-01-28 22:48:49:4849,0.604462,0.237732,0.066940,0.691895,1.119858,6.054382
2019-01-28 22:48:49:4849,0.604462,0.237732,0.066940,0.237259,1.914276,5.224075
2019-01-28 22:48:49:4849,0.604462,0.237732,0.066940,-0.140808,2.009995,6.463562
2019-01-28 22:48:49:4849,0.604462,0.237732,0.066940,-0.097733,1.622360,9.162659
2019-01-28 22:48:50:4850,0.604462,0.237732,0.066940,-0.097733,1.622360,9.162659
2019-01-28 22:48:50:4850,0.604462,0.237732,0.066940,0.647034,0.698135,12.170441
2019-01-28 22:48:50:4850,0.604462,0.237732,0.066940,1.069962,0.643692,12.570038
2019-01-28 22:48:50:4850,0.604462,0.237732,0.066940,0.784027,1.537415,10.843628
2019-01-28 22:48:50:4850,0.604462,0.237732,0.066940,0.103271,2.213379,9.355286
2019-01-28 22:48:50:4850,0.604462,0.237732,0.066940,-0.308319,2.193054,9.356476
2019-01-28 22:48:50:4850,0.604462,0.237732,0.066940,-0.220963,1.913086,10.633057
2019-01-28 22:48:50:4850,0.604462,0.237732,0.066940,0.298279,1.556549,10.684494
2019-01-28 22:48:50:4850,0.604462,0.237732,0.066940,0.469376,1.127045,10.387787
2019-01-28 22:48:50:4850,0.060577,-0.024628,0.145035,0.469376,1.127045,10.387787
2019-01-28 22:48:50:4850,0.060577,-0.024628,0.145035,0.344940,1.141403,10.067154
2019-01-28 22:48:50:4850,0.060577,-0.024628,0.145035,0.175049,1.842499,9.355286
2019-01-28 22:48:50:4850,0.060577,-0.024628,0.145035,0.384415,2.656052,8.097855
2019-01-28 22:48:50:4850,0.060577,-0.024628,0.145035,0.455002,2.431137,8.003342
2019-01-28 22:48:50:4850,0.060577,-0.024628,0.145035,0.056595,1.652267,10.076721
2019-01-28 22:48:50:4850,0.060577,-0.024628,0.145035,0.135574,1.710892,11.829468
2019-01-28 22:48:50:4850,0.060577,-0.024628,0.145035,0.395187,2.155960,11.362869
2019-01-28 22:48:50:4850,0.060577,-0.024628,0.145035,0.393982,1.951370,10.249008
2019-01-28 22:48:50:4850,0.060577,-0.024628,0.145035,0.466965,1.864029,10.580414
2019-01-28 22:48:50:4850,0.236176,-0.015289,0.142685,0.466965,1.864029,10.580414
2019-01-28 22:48:50:4850,0.236176,-0.015289,0.142685,0.536362,2.437119,9.910416
2019-01-28 22:48:50:4850,0.236176,-0.015289,0.142685,0.481323,2.738617,8.406540
2019-01-28 22:48:50:4850,0.236176,-0.015289,0.142685,0.048233,2.469421,8.174423
2019-01-28 22:48:50:4850,0.236176,-0.015289,0.142685,0.347336,2.511292,8.940125
2019-01-28 22:48:50:4850,0.236176,-0.015289,0.142685,0.761292,2.129639,9.523972
2019-01-28 22:48:50:4850,0.236176,-0.015289,0.142685,0.876144,1.107910,10.107834
2019-01-28 22:48:50:4850,0.236176,-0.015289,0.142685,0.837860,0.906906,10.783798
2019-01-28 22:48:50:4850,0.236176,-0.015289,0.142685,0.883316,1.484772,9.771637
2019-01-28 22:48:50:4850,0.236176,-0.015289,0.142685,0.428696,2.169113,7.317795
2019-01-28 22:48:50:4850,0.236176,-0.015289,0.142685,-0.078598,2.456268,5.944321
2019-01-28 22:48:50:4850,0.059402,0.011719,0.133102,-0.078598,2.456268,5.944321
2019-01-28 22:48:50:4850,0.059402,0.011719,0.133102,-0.278397,2.493347,6.751892
2019-01-28 22:48:50:4850,0.059402,0.011719,0.133102,-0.223373,2.059052,8.425674
2019-01-28 22:48:50:4850,0.059402,0.011719,0.133102,0.147522,1.008606,10.756287
2019-01-28 22:48:50:4850,0.059402,0.011719,0.133102,0.574646,0.337418,13.027069
2019-01-28 22:48:50:4850,0.059402,0.011719,0.133102,1.053207,0.637711,13.119202
2019-01-28 22:48:50:4850,0.059402,0.011719,0.133102,0.843842,1.416580,11.104446
2019-01-28 22:48:50:4850,0.059402,0.011719,0.133102,0.085327,2.438309,9.472534
2019-01-28 22:48:50:4850,0.059402,0.011719,0.133102,-0.445892,3.182480,8.581207
2019-01-28 22:48:50:4850,0.059402,0.011719,0.133102,-0.228149,2.998230,8.059570
2019-01-28 22:48:50:4850,0.104599,0.039566,0.208298,-0.228149,2.998230,8.059570
2019-01-28 22:48:50:4850,0.104599,0.039566,0.208298,0.076935,2.206207,8.448410
2019-01-28 22:48:50:4850,0.104599,0.039566,0.208298,0.466965,2.006409,8.786987
2019-01-28 22:48:50:4850,0.104599,0.039566,0.208298,1.150131,2.092545,8.262970
2019-01-28 22:48:50:4850,0.104599,0.039566,0.208298,1.302063,2.031540,7.661163
2019-01-28 22:48:50:4850,0.104599,0.039566,0.208298,0.865372,2.093750,8.685287
2019-01-28 22:48:50:4850,0.104599,0.039566,0.208298,0.705063,2.147583,10.511017
2019-01-28 22:48:50:4850,0.104599,0.039566,0.208298,0.828293,1.663040,12.591568
2019-01-28 22:48:50:4850,0.104599,0.039566,0.208298,1.388214,1.416580,13.297455
2019-01-28 22:48:50:4850,0.104599,0.039566,0.208298,1.134567,2.164337,11.860565
2019-01-28 22:48:50:4850,0.104599,0.039566,0.208298,0.908447,3.170517,9.358871
2019-01-28 22:48:50:4850,-0.178848,-0.079117,0.240356,0.908447,3.170517,9.358871
2019-01-28 22:48:50:4850,-0.178848,-0.079117,0.240356,0.656006,3.096344,7.734146
2019-01-28 22:48:50:4850,-0.178848,-0.079117,0.240356,0.361694,1.841309,8.842026
2019-01-28 22:48:50:4850,-0.178848,-0.079117,0.240356,0.885712,0.929642,10.455994
2019-01-28 22:48:50:4850,-0.178848,-0.079117,0.240356,1.402573,0.446289,10.490677
2019-01-28 22:48:50:4850,-0.178848,-0.079117,0.240356,1.306854,0.555161,8.647003
2019-01-28 22:48:50:4850,-0.178848,-0.079117,0.240356,0.645233,1.028931,6.537735
2019-01-28 22:48:50:4850,-0.178848,-0.079117,0.240356,0.000381,1.628342,5.133148
2019-01-28 22:48:51:4851,-0.178848,-0.079117,0.240356,-0.128845,2.205017,4.130554
2019-01-28 22:48:51:4851,-0.178848,-0.079117,0.240356,-0.347794,2.563934,3.856583
2019-01-28 22:48:51:4851,-0.153915,0.198151,0.089478,-0.347794,2.563934,3.856583
2019-01-28 22:48:51:4851,-0.153915,0.198151,0.089478,-0.706711,2.279190,5.860565
2019-01-28 22:48:51:4851,-0.153915,0.198151,0.089478,-0.010406,1.320862,9.135147
2019-01-28 22:48:51:4851,-0.153915,0.198151,0.089478,1.071167,0.293152,12.840424
2019-01-28 22:48:51:4851,-0.153915,0.198151,0.089478,2.356110,0.061050,14.563263
2019-01-28 22:48:51:4851,-0.153915,0.198151,0.089478,2.173050,0.509689,13.120392
2019-01-28 22:48:51:4851,-0.153915,0.198151,0.089478,0.597382,1.515884,11.962265
2019-01-28 22:48:51:4851,-0.153915,0.198151,0.089478,-0.528442,2.273209,12.887085
2019-01-28 22:48:51:4851,-0.153915,0.198151,0.089478,-0.442307,2.218170,13.220886
2019-01-28 22:48:51:4851,-0.153915,0.198151,0.089478,0.114029,1.837723,12.544922
2019-01-28 22:48:51:4851,-0.153915,0.198151,0.089478,0.596191,2.014786,10.866348
2019-01-28 22:48:51:4851,0.419128,0.300949,-0.018509,0.596191,2.014786,10.866348
2019-01-28 22:48:51:4851,0.419128,0.300949,-0.018509,0.539948,2.553162,8.934143
2019-01-28 22:48:51:4851,0.419128,0.300949,-0.018509,0.769669,3.016190,7.816696
2019-01-28 22:48:51:4851,0.419128,0.300949,-0.018509,0.871368,2.982681,7.467346
2019-01-28 22:48:51:4851,0.419128,0.300949,-0.018509,1.798569,2.254059,7.797562
2019-01-28 22:48:51:4851,0.419128,0.300949,-0.018509,2.295090,1.079193,9.465363
2019-01-28 22:48:51:4851,0.419128,0.300949,-0.018509,2.001968,0.502518,11.669144
2019-01-28 22:48:51:4851,0.419128,0.300949,-0.018509,1.150116,1.208405,11.703842
2019-01-28 22:48:51:4851,0.419128,0.300949,-0.018509,0.469360,2.383286,10.101852
2019-01-28 22:48:51:4851,0.419128,0.300949,-0.018509,-0.109711,3.667023,8.590775
2019-01-28 22:48:51:4851,-0.360260,-0.513443,-0.360718,-0.109711,3.667023,8.590775
2019-01-28 22:48:51:4851,-0.360260,-0.513443,-0.360718,-0.404022,4.963943,7.246017
2019-01-28 22:48:51:4851,-0.360260,-0.513443,-0.360718,-0.035522,4.429138,6.712418
2019-01-28 22:48:51:4851,-0.360260,-0.513443,-0.360718,1.445633,1.430939,8.784592
2019-01-28 22:48:51:4851,-0.360260,-0.513443,-0.360718,2.309448,-1.302872,12.716003
2019-01-28 22:48:51:4851,-0.360260,-0.513443,-0.360718,2.701874,-1.655807,14.216309
2019-01-28 22:48:51:4851,-0.360260,-0.513443,-0.360718,1.982819,-0.179443,11.061371
2019-01-28 22:48:51:4851,-0.360260,-0.513443,-0.360718,0.986221,1.544601,6.243423
2019-01-28 22:48:51:4851,-0.360260,-0.513443,-0.360718,0.051819,2.437119,2.699646
2019-01-28 22:48:51:4851,-0.360260,-0.513443,-0.360718,-0.520065,2.243301,4.448807
2019-01-28 22:48:51:4851,-0.009933,-0.059143,-0.495407,-0.520065,2.243301,4.448807
2019-01-28 22:48:51:4851,-0.009933,-0.059143,-0.495407,-0.868225,2.269623,8.861176
2019-01-28 22:48:51:4851,-0.009933,-0.059143,-0.495407,0.053009,2.407196,10.381805
2019-01-28 22:48:51:4851,-0.009933,-0.059143,-0.495407,0.634460,2.409607,8.218704
2019-01-28 22:48:51:4851,-0.009933,-0.059143,-0.495407,1.107056,1.798233,7.336945
2019-01-28 22:48:51:4851,-0.009933,-0.059143,-0.495407,3.191208,0.160339,11.923981
2019-01-28 22:48:51:4851,-0.009933,-0.059143,-0.495407,4.074158,-0.360107,16.085098
2019-01-28 22:48:51:4851,-0.009933,-0.059143,-0.495407,1.845245,1.044495,12.903839
2019-01-28 22:48:51:4851,-0.009933,-0.059143,-0.495407,0.819916,2.243301,11.158279
2019-01-28 22:48:51:4851,-0.009933,-0.059143,-0.495407,0.396378,2.650085,10.161667
2019-01-28 22:48:51:4851,-0.009933,-0.059143,-0.495407,-0.055862,3.229141,8.703247
2019-01-28 22:48:51:4851,0.150711,-0.081192,-0.394867,-0.055862,3.229141,8.703247
2019-01-28 22:48:51:4851,0.150711,-0.081192,-0.394867,0.184616,3.548584,7.523575
2019-01-28 22:48:51:4851,0.150711,-0.081192,-0.394867,2.041443,2.705109,8.484299
2019-01-28 22:48:51:4851,0.150711,-0.081192,-0.394867,2.844238,1.124649,11.720596
2019-01-28 22:48:51:4851,0.150711,-0.081192,-0.394867,1.903854,0.119675,11.850998
2019-01-28 22:48:51:4851,0.150711,-0.081192,-0.394867,0.585419,0.497726,10.622284
2019-01-28 22:48:51:4851,0.150711,-0.081192,-0.394867,-0.414795,2.063843,10.044418
2019-01-28 22:48:51:4851,0.150711,-0.081192,-0.394867,-0.811996,3.705307,8.018890
2019-01-28 22:48:51:4851,0.150711,-0.081192,-0.394867,0.715820,3.455261,6.097458
2019-01-28 22:48:51:4851,0.150711,-0.081192,-0.394867,1.330780,1.938217,9.405533
2019-01-28 22:48:52:4852,-0.023376,-0.126343,-0.004654,1.330780,1.938217,9.405533
2019-01-28 22:48:52:4852,-0.023376,-0.126343,-0.004654,0.805557,1.846085,11.884506
2019-01-28 22:48:52:4852,-0.023376,-0.126343,-0.004654,-0.381287,2.861847,11.129562
2019-01-28 22:48:52:4852,-0.023376,-0.126343,-0.004654,0.147537,2.863037,9.569443
2019-01-28 22:48:52:4852,-0.023376,-0.126343,-0.004654,0.904861,1.972916,8.643417
2019-01-28 22:48:52:4852,-0.023376,-0.126343,-0.004654,0.490906,1.384277,9.326569
2019-01-28 22:48:52:4852,-0.023376,-0.126343,-0.004654,0.033875,1.649872,10.079117
2019-01-28 22:48:52:4852,-0.023376,-0.126343,-0.004654,0.365280,2.108093,8.874329
2019-01-28 22:48:52:4852,-0.023376,-0.126343,-0.004654,1.243439,2.151169,6.455185
2019-01-28 22:48:52:4852,-0.023376,-0.126343,-0.004654,1.493484,1.497940,5.956284
2019-01-28 22:48:52:4852,-0.023376,-0.126343,-0.004654,1.103455,1.182083,8.461563
2019-01-28 22:48:52:4852,-0.050934,0.056305,-0.049240,1.103455,1.182083,8.461563
2019-01-28 22:48:52:4852,-0.050934,0.056305,-0.049240,1.431274,1.592453,9.675919
2019-01-28 22:48:52:4852,-0.050934,0.056305,-0.049240,1.754318,1.573303,9.555084
2019-01-28 22:48:52:4852,-0.050934,0.056305,-0.049240,2.057007,0.153168,10.110229
2019-01-28 22:48:52:4852,-0.050934,0.056305,-0.049240,1.500671,-0.808762,11.880905
2019-01-28 22:48:52:4852,-0.050934,0.056305,-0.049240,0.648834,0.305115,12.346313
2019-01-28 22:48:52:4852,-0.050934,0.056305,-0.049240,0.218124,1.864029,9.923584
2019-01-28 22:48:52:4852,-0.050934,0.056305,-0.049240,0.207352,2.733826,6.495865
2019-01-28 22:48:52:4852,-0.050934,0.056305,-0.049240,-0.055862,2.897736,4.996765
2019-01-28 22:48:52:4852,-0.050934,0.056305,-0.049240,-0.426758,2.784073,7.108429
2019-01-28 22:48:52:4852,-0.131439,-0.065430,-0.037140,-0.426758,2.784073,7.108429
2019-01-28 22:48:52:4852,-0.131439,-0.065430,-0.037140,-0.163544,2.755356,9.605331
2019-01-28 22:48:52:4852,-0.131439,-0.065430,-0.037140,0.255203,2.116486,11.275528
2019-01-28 22:48:52:4852,-0.131439,-0.065430,-0.037140,0.577042,1.194046,12.296066
2019-01-28 22:48:52:4852,-0.131439,-0.065430,-0.037140,1.233871,0.644897,11.770844
2019-01-28 22:48:52:4852,-0.131439,-0.065430,-0.037140,0.609344,1.085175,10.902252
2019-01-28 22:48:52:4852,-0.131439,-0.065430,-0.037140,-0.323868,2.297134,10.123383
2019-01-28 22:48:52:4852,-0.131439,-0.065430,-0.037140,0.220520,3.146591,8.474731
2019-01-28 22:48:52:4852,-0.131439,-0.065430,-0.037140,2.257996,2.623764,8.022476
2019-01-28 22:48:52:4852,-0.131439,-0.065430,-0.037140,2.632477,1.062439,11.587784
2019-01-28 22:48:52:4852,-0.131439,-0.065430,-0.037140,1.744736,0.786072,13.717407
2019-01-28 22:48:52:4852,-0.131439,-0.065430,-0.037140,1.038864,1.518265,12.690872
2019-01-28 22:48:52:4852,-0.131439,-0.065430,-0.037140,0.695496,1.707306,12.217102
2019-01-28 22:48:52:4852,-0.131439,-0.065430,-0.037140,0.301865,1.822159,12.201553
2019-01-28 22:48:52:4852,-0.131439,-0.065430,-0.037140,1.280533,1.519470,5.798355
2019-01-28 22:48:52:4852,-0.131439,-0.065430,-0.037140,1.225494,0.591049,8.095459
2019-01-28 22:48:52:4852,-0.131439,-0.065430,-0.037140,0.828278,0.131622,9.746506
2019-01-28 22:48:52:4852,-0.131439,-0.065430,-0.037140,0.919205,0.725052,9.780014
2019-01-28 22:48:52:4852,-0.131439,-0.065430,-0.037140,1.158493,1.330429,8.700851
2019-01-28 22:48:52:4852,-0.131439,-0.065430,-0.037140,1.294891,1.883179,7.016296
2019-01-28 22:48:52:4852,-0.131439,-0.065430,-0.037140,1.084320,2.093750,6.257767
2019-01-28 22:48:52:4852,0.452850,0.136444,0.296860,1.084320,2.093750,6.257767
2019-01-28 22:48:52:4852,0.452850,0.136444,0.296860,0.409546,2.062637,7.482895
2019-01-28 22:48:52:4852,0.452850,0.136444,0.296860,0.273163,2.015976,8.551300
2019-01-28 22:48:52:4852,0.452850,0.136444,0.296860,-0.206619,1.887955,12.018494
2019-01-28 22:48:52:4852,0.452850,0.136444,0.296860,0.128387,2.251678,11.409515
2019-01-28 22:48:52:4852,0.452850,0.136444,0.296860,1.091492,3.160950,8.955688
2019-01-28 22:48:52:4852,0.452850,0.136444,0.296860,1.725601,3.586868,6.682510
2019-01-28 22:48:52:4852,0.452850,0.136444,0.296860,1.000580,2.888168,7.019882
2019-01-28 22:48:52:4852,0.452850,0.136444,0.296860,-0.003220,2.388062,9.931961
2019-01-28 22:48:52:4852,0.452850,0.136444,0.296860,0.319824,2.288757,11.772034
2019-01-28 22:48:52:4852,0.452850,0.136444,0.296860,1.035278,1.940598,10.651001
2019-01-28 22:48:53:4853,-0.001205,0.211792,0.098251,1.035278,1.940598,10.651001
2019-01-28 22:48:53:4853,-0.001205,0.211792,0.098251,1.303268,1.351974,10.122192
2019-01-28 22:48:53:4853,-0.001205,0.211792,0.098251,0.758896,1.105515,11.739731
2019-01-28 22:48:53:4853,-0.001205,0.211792,0.098251,0.388016,1.864029,12.163254
2019-01-28 22:48:53:4853,-0.001205,0.211792,0.098251,0.987411,2.647690,10.161667
2019-01-28 22:48:53:4853,-0.001205,0.211792,0.098251,0.414337,2.486176,9.115997
2019-01-28 22:48:53:4853,-0.001205,0.211792,0.098251,-0.366943,2.317474,9.762070
2019-01-28 22:48:53:4853,-0.001205,0.211792,0.098251,0.255219,2.317474,9.417496
2019-01-28 22:48:53:4853,-0.001205,0.211792,0.098251,0.648819,1.929840,8.233047
2019-01-28 22:48:53:4853,-0.001205,0.211792,0.098251,-0.036728,1.715683,7.686295
2019-01-28 22:48:53:4853,-0.001205,0.211792,0.098251,-0.279602,1.781479,7.531952
2019-01-28 22:48:53:4853,0.081192,0.127167,-0.058273,-0.279602,1.781479,7.531952
2019-01-28 22:48:53:4853,0.081192,0.127167,-0.058273,0.076950,1.794647,6.582001
2019-01-28 22:48:53:4853,0.081192,0.127167,-0.058273,-0.140808,1.524261,6.323578
2019-01-28 22:48:53:4853,0.081192,0.127167,-0.058273,-0.136032,1.566132,8.122986
2019-01-28 22:48:53:4853,0.081192,0.127167,-0.058273,0.480133,1.680984,10.453598
2019-01-28 22:48:53:4853,0.081192,0.127167,-0.058273,-0.073822,1.137817,13.061768
2019-01-28 22:48:53:4853,0.081192,0.127167,-0.058273,-0.539215,1.483582,14.109833
2019-01-28 22:48:53:4853,0.081192,0.127167,-0.058273,0.019516,2.575897,11.518402
2019-01-28 22:48:53:4853,0.081192,0.127167,-0.058273,0.791199,2.461044,9.407928
2019-01-28 22:48:53:4853,0.081192,0.127167,-0.058273,0.533966,1.841309,9.744110
2019-01-28 22:48:53:4853,-0.239929,-0.064835,-0.058945,0.533966,1.841309,9.744110
2019-01-28 22:48:53:4853,-0.239929,-0.064835,-0.058945,0.886917,2.208603,10.674927
2019-01-28 22:48:53:4853,-0.239929,-0.064835,-0.058945,1.166870,2.737411,10.118591
2019-01-28 22:48:53:4853,-0.239929,-0.064835,-0.058945,0.976639,2.417969,9.077713
2019-01-28 22:48:53:4853,-0.239929,-0.064835,-0.058945,0.709839,2.157166,9.930756
2019-01-28 22:48:53:4853,-0.239929,-0.064835,-0.058945,1.037659,2.482590,10.312424
2019-01-28 22:48:53:4853,-0.239929,-0.064835,-0.058945,0.486115,1.677399,10.192780
2019-01-28 22:48:53:4853,-0.239929,-0.064835,-0.058945,-0.248489,1.021759,10.846008
2019-01-28 22:48:53:4853,-0.239929,-0.064835,-0.058945,0.049423,1.909500,10.174820
2019-01-28 22:48:53:4853,-0.239929,-0.064835,-0.058945,0.870163,2.997040,7.534348
2019-01-28 22:48:53:4853,-0.239929,-0.064835,-0.058945,0.210938,2.967133,6.145309
2019-01-28 22:48:53:4853,0.118332,-0.040817,0.067551,0.210938,2.967133,6.145309
2019-01-28 22:48:53:4853,0.118332,-0.040817,0.067551,-0.374115,2.818771,8.435242
2019-01-28 22:48:53:4853,0.118332,-0.040817,0.067551,-0.673218,2.232529,11.440628
2019-01-28 22:48:53:4853,0.118332,-0.040817,0.067551,-0.187469,1.691757,13.033051
2019-01-28 22:48:53:4853,0.118332,-0.040817,0.067551,0.717026,1.341202,11.773239
2019-01-28 22:48:53:4853,0.118332,-0.040817,0.067551,0.873749,1.243103,10.044418
2019-01-28 22:48:53:4853,0.118332,-0.040817,0.067551,0.094894,1.411789,9.004730
2019-01-28 22:48:53:4853,0.118332,-0.040817,0.067551,0.069763,2.012390,8.114609
2019-01-28 22:48:53:4853,0.118332,-0.040817,0.067551,0.897690,2.459854,6.436035
2019-01-28 22:48:53:4853,0.118332,-0.040817,0.067551,1.827301,2.758957,4.765854
2019-01-28 22:48:53:4853,0.233002,0.200470,-0.130234,1.827301,2.758957,4.765854
2019-01-28 22:48:53:4853,0.233002,0.200470,-0.130234,0.957504,2.534027,5.001541
2019-01-28 22:48:53:4853,0.233002,0.200470,-0.130234,0.255203,2.663239,7.675522
2019-01-28 22:48:53:4853,0.233002,0.200470,-0.130234,0.409546,2.370117,10.266953
2019-01-28 22:48:53:4853,0.233002,0.200470,-0.130234,0.488510,0.936813,11.931152
2019-01-28 22:48:53:4853,0.233002,0.200470,-0.130234,0.198975,0.671219,13.332153
2019-01-28 22:48:53:4853,0.233002,0.200470,-0.130234,0.572266,2.232529,11.214508
2019-01-28 22:48:53:4853,0.233002,0.200470,-0.130234,0.755310,4.024750,7.415894
2019-01-28 22:48:53:4853,0.233002,0.200470,-0.130234,0.048233,3.801025,5.367645
2019-01-28 22:48:53:4853,0.233002,0.200470,-0.130234,-0.917282,2.441895,8.264160
2019-01-28 22:48:54:4854,-0.100769,-0.038132,-0.087418,-0.917282,2.441895,8.264160
2019-01-28 22:48:54:4854,-0.100769,-0.038132,-0.087418,-0.444702,1.570908,12.899048
2019-01-28 22:48:54:4854,-0.100769,-0.038132,-0.087418,-0.107315,0.972717,13.979416
2019-01-28 22:48:54:4854,-0.100769,-0.038132,-0.087418,0.392792,1.051666,11.038635
2019-01-28 22:48:54:4854,-0.100769,-0.038132,-0.087418,0.188202,1.385468,8.772629
2019-01-28 22:48:54:4854,-0.100769,-0.038132,-0.087418,-0.465042,1.788666,7.715012
2019-01-28 22:48:54:4854,-0.100769,-0.038132,-0.087418,-0.631332,2.422760,7.231659
2019-01-28 22:48:54:4854,-0.100769,-0.038132,-0.087418,-0.258057,3.013779,6.365448
2019-01-28 22:48:54:4854,-0.100769,-0.038132,-0.087418,-0.034332,3.253067,5.477707
2019-01-28 22:48:54:4854,-0.100769,-0.038132,-0.087418,-0.256866,2.571121,6.089081
2019-01-28 22:48:54:4854,-0.100769,-0.038132,-0.087418,-1.221176,1.142593,10.168854
2019-01-28 22:48:54:4854,-0.320740,-0.076752,-0.075500,-1.221176,1.142593,10.168854
2019-01-28 22:48:54:4854,-0.320740,-0.076752,-0.075500,-0.966339,1.014587,14.444824
2019-01-28 22:48:54:4854,-0.320740,-0.076752,-0.075500,0.068573,1.834122,14.840836
2019-01-28 22:48:54:4854,-0.320740,-0.076752,-0.075500,0.139160,2.901321,12.264954
2019-01-28 22:48:54:4854,-0.320740,-0.076752,-0.075500,-0.004425,3.456467,10.930954
2019-01-28 22:48:54:4854,-0.320740,-0.076752,-0.075500,-0.018784,3.172913,12.357086
2019-01-28 22:48:54:4854,-0.320740,-0.076752,-0.075500,0.486115,2.690750,13.566650
2019-01-28 22:48:54:4854,-0.320740,-0.076752,-0.075500,1.184830,2.323456,11.913208
2019-01-28 22:48:54:4854,-0.320740,-0.076752,-0.075500,1.434860,2.188263,8.901840
2019-01-28 22:48:54:4854,-0.320740,-0.076752,-0.075500,1.007751,2.163147,6.498260
2019-01-28 22:48:54:4854,0.284805,-0.218445,0.185196,1.007751,2.163147,6.498260
2019-01-28 22:48:54:4854,0.284805,-0.218445,0.185196,0.858200,2.426346,5.706223
2019-01-28 22:48:54:4854,0.284805,-0.218445,0.185196,0.596191,2.550781,5.792374
2019-01-28 22:48:54:4854,0.284805,-0.218445,0.185196,0.416718,2.561539,6.507828
2019-01-28 22:48:54:4854,0.284805,-0.218445,0.185196,0.435867,2.445496,8.158875
2019-01-28 22:48:54:4854,0.284805,-0.218445,0.185196,1.010147,1.598434,9.935547
2019-01-28 22:48:54:4854,0.284805,-0.218445,0.185196,1.682526,-0.171066,11.599762
2019-01-28 22:48:54:4854,0.284805,-0.218445,0.185196,2.001968,-1.217926,12.871536
2019-01-28 22:48:54:4854,0.284805,-0.218445,0.185196,1.244644,-0.509659,12.133347
2019-01-28 22:48:54:4854,0.284805,-0.218445,0.185196,0.099670,0.781281,9.144714
2019-01-28 22:48:54:4854,0.284805,-0.218445,0.185196,-0.821564,1.618774,5.603333
2019-01-28 22:48:54:4854,0.158112,0.090332,-0.169205,-0.821564,1.618774,5.603333
2019-01-28 22:48:54:4854,0.158112,0.090332,-0.169205,-0.981888,1.635513,2.778610
2019-01-28 22:48:54:4854,0.158112,0.090332,-0.169205,-0.532043,1.209595,2.843216
2019-01-28 22:48:54:4854,0.158112,0.090332,-0.169205,-0.220978,0.984665,4.451202
2019-01-28 22:48:54:4854,0.158112,0.090332,-0.169205,-0.565536,1.227539,5.484894
2019-01-28 22:48:54:4854,0.158112,0.090332,-0.169205,-0.711502,1.533829,6.894272
2019-01-28 22:48:54:4854,0.158112,0.090332,-0.169205,-0.427948,1.360336,9.157883
2019-01-28 22:48:54:4854,0.158112,0.090332,-0.169205,0.516022,0.605408,12.686096
2019-01-28 22:48:54:4854,0.158112,0.090332,-0.169205,1.449234,0.495346,16.333954
2019-01-28 22:48:54:4854,0.158112,0.090332,-0.169205,0.959900,1.249084,16.274124
2019-01-28 22:48:54:4854,-0.384460,0.052155,0.045319,0.959900,1.249084,16.274124
2019-01-28 22:48:55:4855,-0.384460,0.052155,0.045319,-0.449493,2.769714,13.311813
2019-01-28 22:48:55:4855,-0.384460,0.052155,0.045319,-0.980698,4.171921,10.993164
2019-01-28 22:48:55:4855,-0.384460,0.052155,0.045319,-0.094147,3.527039,10.799347
2019-01-28 22:48:55:4855,-0.384460,0.052155,0.045319,0.797180,1.392654,12.323578
2019-01-28 22:48:55:4855,-0.384460,0.052155,0.045319,1.418121,0.116074,12.036438
2019-01-28 22:48:55:4855,-0.384460,0.052155,0.045319,1.424103,0.293152,11.017105
2019-01-28 22:48:55:4855,-0.384460,0.052155,0.045319,0.259995,1.655869,9.283493
2019-01-28 22:48:55:4855,-0.384460,0.052155,0.045319,-0.960358,2.894150,6.589188
2019-01-28 22:48:55:4855,-0.384460,0.052155,0.045319,-1.452072,3.495941,4.963257
2019-01-28 22:48:55:4855,-0.384460,0.052155,0.045319,-1.241516,3.671814,6.446808
2019-01-28 22:48:55:4855,-0.181290,0.184891,0.119720,-1.241516,3.671814,6.446808
2019-01-28 22:48:55:4855,-0.181290,0.184891,0.119720,-0.179092,3.199234,9.674728
2019-01-28 22:48:55:4855,-0.181290,0.184891,0.119720,1.133377,1.996841,13.213715
2019-01-28 22:48:55:4855,-0.181290,0.184891,0.119720,1.238647,0.396042,15.004745
2019-01-28 22:48:55:4855,-0.181290,0.184891,0.119720,1.836868,-0.522812,11.764862
2019-01-28 22:48:55:4855,-0.181290,0.184891,0.119720,2.834671,-0.550323,9.937927
2019-01-28 22:48:55:4855,-0.181290,0.184891,0.119720,2.000778,0.415176,9.278717
2019-01-28 22:48:55:4855,-0.181290,0.184891,0.119720,0.316223,1.313690,8.181610
2019-01-28 22:48:55:4855,-0.181290,0.184891,0.119720,-1.557358,1.718063,6.542526
2019-01-28 22:48:55:4855,-0.181290,0.184891,0.119720,-2.543213,1.780289,6.717194
2019-01-28 22:48:55:4855,-0.181290,0.184891,0.119720,-1.498734,1.506302,8.103836
2019-01-28 22:48:55:4855,-0.181290,0.184891,0.119720,-0.303528,1.106705,8.676926
2019-01-28 22:48:55:4855,-0.181290,0.184891,0.119720,-0.150375,1.052872,8.645813
2019-01-28 22:48:55:4855,-0.181290,0.184891,0.119720,-0.144394,0.518082,10.749100
2019-01-28 22:48:55:4855,-0.181290,0.184891,0.119720,-0.138412,-0.016724,12.852386
2019-01-28 22:48:55:4855,-0.181290,0.184891,0.119720,-0.057053,0.203415,11.483704
2019-01-28 22:48:55:4855,-0.181290,0.184891,0.119720,0.457397,0.330231,10.591171
2019-01-28 22:48:55:4855,-0.181290,0.184891,0.119720,-0.404022,1.107895,9.880508
2019-01-28 22:48:55:4855,-0.181290,0.184891,0.119720,-0.715088,1.732422,8.700851
2019-01-28 22:48:55:4855,-0.181290,0.184891,0.119720,-1.002228,1.033722,8.241425
2019-01-28 22:48:55:4855,-0.181290,0.184891,0.119720,-1.050079,0.256058,9.406723
2019-01-28 22:48:55:4855,0.027023,0.144623,-0.087173,-1.050079,0.256058,9.406723
2019-01-28 22:48:55:4855,0.027023,0.144623,-0.087173,-0.585876,0.306305,10.543320
2019-01-28 22:48:55:4855,0.027023,0.144623,-0.087173,0.251617,0.768112,9.265549
2019-01-28 22:48:55:4855,0.027023,0.144623,-0.087173,0.313828,0.866226,8.454376
2019-01-28 22:48:55:4855,0.027023,0.144623,-0.087173,-0.217377,0.440308,10.361465
2019-01-28 22:48:55:4855,0.027023,0.144623,-0.087173,-0.533234,0.909302,11.105637
2019-01-28 22:48:55:4855,0.027023,0.144623,-0.087173,-0.612198,1.720459,9.918793
2019-01-28 22:48:55:4855,0.027023,0.144623,-0.087173,-0.066635,1.911880,9.830261
2019-01-28 22:48:55:4855,0.027023,0.144623,-0.087173,0.131973,2.134415,9.892471
2019-01-28 22:48:55:4855,0.027023,0.144623,-0.087173,-0.102524,2.311493,10.153290
2019-01-28 22:48:55:4855,0.210342,-0.065262,-0.162735,-0.102524,2.311493,10.153290
2019-01-28 22:48:55:4855,0.210342,-0.065262,-0.162735,-0.420761,1.969315,9.724976
2019-01-28 22:48:55:4855,0.210342,-0.065262,-0.162735,-0.571518,1.378296,9.320587
2019-01-28 22:48:55:4855,0.210342,-0.065262,-0.162735,-0.305908,1.541000,10.071930
2019-01-28 22:48:55:4855,0.210342,-0.065262,-0.162735,-0.420761,2.593842,9.009521
2019-01-28 22:48:55:4855,0.210342,-0.065262,-0.162735,-0.136017,3.280579,7.439819
2019-01-28 22:48:55:4855,0.210342,-0.065262,-0.162735,-1.325256,1.837708,8.959274
2019-01-28 22:48:55:4855,0.210342,-0.065262,-0.162735,-0.774902,0.617371,13.472137
2019-01-28 22:48:55:4855,0.210342,-0.065262,-0.162735,0.828278,0.861435,14.651794
2019-01-28 22:48:55:4855,0.210342,-0.065262,-0.162735,1.292496,1.462036,11.170242
2019-01-28 22:48:55:4855,-0.183426,-0.161880,0.090286,1.292496,1.462036,11.170242
2019-01-28 22:48:55:4855,-0.183426,-0.161880,0.090286,1.194382,1.481186,8.542923
2019-01-28 22:48:55:4855,-0.183426,-0.161880,0.090286,0.950317,0.670013,9.035843
2019-01-28 22:48:55:4855,-0.183426,-0.161880,0.090286,0.457397,0.263229,10.327957
2019-01-28 22:48:55:4855,-0.183426,-0.161880,0.090286,0.799576,0.603012,9.349304
2019-01-28 22:48:55:4855,-0.183426,-0.161880,0.090286,0.959885,1.196426,6.791367
2019-01-28 22:48:55:4855,-0.183426,-0.161880,0.090286,0.395187,1.409393,5.444214
2019-01-28 22:48:55:4855,-0.183426,-0.161880,0.090286,-0.159958,0.942795,6.473129
2019-01-28 22:48:55:4855,-0.183426,-0.161880,0.090286,0.036255,-0.069366,10.392563
2019-01-28 22:48:55:4855,-0.183426,-0.161880,0.090286,0.251617,-0.181839,12.443222
2019-01-28 22:48:55:4855,0.041245,-0.042160,-0.184845,0.251617,-0.181839,12.443222
2019-01-28 22:48:55:4855,0.041245,-0.042160,-0.184845,0.364075,0.442688,10.689285
2019-01-28 22:48:55:4855,0.041245,-0.042160,-0.184845,0.388000,1.627136,8.009323
2019-01-28 22:48:55:4855,0.041245,-0.042160,-0.184845,-0.030731,2.115280,6.169235
2019-01-28 22:48:55:4855,0.041245,-0.042160,-0.184845,-0.667236,1.560150,7.128754
2019-01-28 22:48:55:4855,0.041245,-0.042160,-0.184845,-0.667236,1.560150,7.128754
2019-01-28 22:48:55:4855,0.041245,-0.042160,-0.184845,-0.629547,2.044693,9.190781
2019-01-28 22:48:55:4855,0.041245,-0.042160,-0.184845,-0.028351,2.492157,8.521393
2019-01-28 22:48:56:4856,0.041245,-0.042160,-0.184845,0.227692,1.714478,7.004333
2019-01-28 22:48:56:4856,0.041245,-0.042160,-0.184845,0.159500,0.238113,9.599350
2019-01-28 22:48:56:4856,0.041245,-0.042160,-0.184845,0.504059,0.488159,12.668152
2019-01-28 22:48:56:4856,0.041245,-0.042160,-0.184845,0.529190,1.751572,12.073532
2019-01-28 22:48:56:4856,0.041245,-0.042160,-0.184845,0.035065,2.041107,10.722778
2019-01-28 22:48:56:4856,0.041245,-0.042160,-0.184845,0.231277,0.565933,12.381012
2019-01-28 22:48:56:4856,-0.151108,-0.041946,0.095474,0.231277,0.565933,12.381012
2019-01-28 22:48:56:4856,-0.151108,-0.041946,0.095474,0.408356,-0.114838,14.925781
2019-01-28 22:48:56:4856,-0.151108,-0.041946,0.095474,0.368866,0.686768,14.088287
2019-01-28 22:48:56:4856,-0.151108,-0.041946,0.095474,0.102066,1.782684,10.142532
2019-01-28 22:48:56:4856,-0.151108,-0.041946,0.095474,-0.411194,2.310303,6.879913
2019-01-28 22:48:56:4856,-0.151108,-0.041946,0.095474,-0.845505,1.832932,6.895462
2019-01-28 22:48:56:4856,-0.151108,-0.041946,0.095474,-0.357361,1.208405,8.724777
2019-01-28 22:48:56:4856,-0.151108,-0.041946,0.095474,0.198975,0.854263,9.037048
2019-01-28 22:48:56:4856,-0.151108,-0.041946,0.095474,0.690704,1.180878,8.009323
2019-01-28 22:48:56:4856,-0.151108,-0.041946,0.095474,0.763687,1.978897,6.217102
2019-01-28 22:48:56:4856,-0.151108,-0.041946,0.095474,0.520813,2.401215,5.165451
2019-01-28 22:48:56:4856,0.315216,0.006332,-0.121384,0.520813,2.401215,5.165451
2019-01-28 22:48:56:4856,0.315216,0.006332,-0.121384,0.423904,1.447678,6.614304
2019-01-28 22:48:56:4856,0.315216,0.006332,-0.121384,0.557907,0.297928,11.021881
2019-01-28 22:48:56:4856,0.315216,0.006332,-0.121384,0.766068,-0.099289,15.087296
2019-01-28 22:48:56:4856,0.315216,0.006332,-0.121384,0.845032,0.067032,14.545319
2019-01-28 22:48:56:4856,0.315216,0.006332,-0.121384,0.488510,0.197433,12.085495
2019-01-28 22:48:56:4856,0.315216,0.006332,-0.121384,0.092499,0.599426,12.017303
2019-01-28 22:48:56:4856,0.315216,0.006332,-0.121384,-0.181488,1.368713,11.661972
2019-01-28 22:48:56:4856,0.315216,0.006332,-0.121384,-0.279602,1.856857,10.019287
2019-01-28 22:48:56:4856,0.315216,0.006332,-0.121384,-0.100128,1.672607,8.504639
2019-01-28 22:48:56:4856,0.029648,-0.162689,0.055893,-0.100128,1.672607,8.504639
2019-01-28 22:48:56:4856,0.029648,-0.162689,0.055893,0.543549,1.430939,8.026077
2019-01-28 22:48:56:4856,0.029648,-0.162689,0.055893,0.539963,1.572113,8.246216
2019-01-28 22:48:56:4856,0.029648,-0.162689,0.055893,0.792404,1.640305,8.282104
2019-01-28 22:48:56:4856,0.029648,-0.162689,0.055893,0.516022,1.384277,8.869537
2019-01-28 22:48:56:4856,0.029648,-0.162689,0.055893,0.492096,1.076797,9.742920
2019-01-28 22:48:56:4856,0.029648,-0.162689,0.055893,0.414322,1.256256,10.062363
2019-01-28 22:48:56:4856,0.029648,-0.162689,0.055893,0.337753,1.639114,9.742920
2019-01-28 22:48:56:4856,0.029648,-0.162689,0.055893,0.422699,1.619965,8.583603
2019-01-28 22:48:56:4856,0.029648,-0.162689,0.055893,0.161880,1.387863,8.250992
2019-01-28 22:48:56:4856,0.029648,-0.162689,0.055893,0.286316,1.635513,8.913803
2019-01-28 22:48:56:4856,0.105270,0.036575,-0.027008,0.286316,1.635513,8.913803
2019-01-28 22:48:56:4856,0.105270,0.036575,-0.027008,0.391602,2.021957,9.071732
2019-01-28 22:48:56:4856,0.105270,0.036575,-0.027008,0.373657,1.995651,9.166245
2019-01-28 22:48:56:4856,0.105270,0.036575,-0.027008,0.457397,1.344788,10.049210
2019-01-28 22:48:56:4856,0.105270,0.036575,-0.027008,0.353317,0.983475,11.541138
2019-01-28 22:48:56:4856,0.105270,0.036575,-0.027008,0.395187,1.302917,11.673935
2019-01-28 22:48:56:4856,0.105270,0.036575,-0.027008,0.443039,1.507507,10.050400
2019-01-28 22:48:56:4856,0.105270,0.036575,-0.027008,0.395187,0.902115,8.990372
2019-01-28 22:48:56:4856,0.105270,0.036575,-0.027008,0.154709,0.713089,9.100449
2019-01-28 22:48:56:4856,0.105270,0.036575,-0.027008,0.164276,1.462036,8.792969
2019-01-28 22:48:56:4856,0.126465,0.013367,-0.107025,0.164276,1.462036,8.792969
2019-01-28 22:48:56:4856,0.126465,0.013367,-0.107025,0.031479,2.781677,6.863159
2019-01-28 22:48:56:4856,0.126465,0.013367,-0.107025,-0.079803,3.108307,5.140320
2019-01-28 22:48:56:4856,0.126465,0.013367,-0.107025,-0.159958,1.708496,6.291275
2019-01-28 22:48:56:4856,0.126465,0.013367,-0.107025,-0.256866,0.342194,11.253998
2019-01-28 22:48:56:4856,0.126465,0.013367,-0.107025,-0.064240,0.183075,16.388977
2019-01-28 22:48:56:4856,0.126465,0.013367,-0.107025,0.062576,0.890152,15.230865
2019-01-28 22:48:56:4856,0.126465,0.013367,-0.107025,0.376038,1.686966,10.749100
2019-01-28 22:48:56:4856,0.126465,0.013367,-0.107025,0.301865,1.485977,9.345718
2019-01-28 22:48:56:4856,0.126465,0.013367,-0.107025,-0.344208,1.417770,9.863754
2019-01-28 22:48:56:4856,0.126465,0.013367,-0.107025,-0.697144,2.224152,9.168640
2019-01-28 22:48:57:4857,-0.224960,-0.077774,0.040070,-0.697144,2.224152,9.168640
2019-01-28 22:48:57:4857,-0.224960,-0.077774,0.040070,-0.138412,2.890549,7.345306
2019-01-28 22:48:57:4857,-0.224960,-0.077774,0.040070,0.738556,1.916672,7.486496
2019-01-28 22:48:57:4857,-0.224960,-0.077774,0.040070,0.094894,0.177094,10.834045
2019-01-28 22:48:57:4857,-0.224960,-0.077774,0.040070,0.088898,0.886566,12.410919
2019-01-28 22:48:57:4857,-0.224960,-0.077774,0.040070,0.145142,2.849884,10.536148
2019-01-28 22:48:57:4857,-0.224960,-0.077774,0.040070,0.441849,2.878586,8.615906
2019-01-28 22:48:57:4857,-0.224960,-0.077774,0.040070,0.995789,1.251465,10.126968
2019-01-28 22:48:57:4857,-0.224960,-0.077774,0.040070,1.390610,0.796829,13.304642
2019-01-28 22:48:57:4857,-0.224960,-0.077774,0.040070,1.129791,0.922455,14.599152
2019-01-28 22:48:57:4857,0.190308,-0.106979,0.047150,1.129791,0.922455,14.599152
2019-01-28 22:48:57:4857,0.190308,-0.106979,0.047150,1.468369,0.114883,13.330963
2019-01-28 22:48:57:4857,0.190308,-0.106979,0.047150,1.275757,0.245285,11.644028
2019-01-28 22:48:57:4857,0.190308,-0.106979,0.047150,0.434677,1.623550,9.293076
2019-01-28 22:48:57:4857,0.190308,-0.106979,0.047150,0.061386,2.596237,5.880905
2019-01-28 22:48:57:4857,0.190308,-0.106979,0.047150,-0.167130,2.134415,3.739334
2019-01-28 22:48:57:4857,0.190308,-0.106979,0.047150,-0.395645,1.083969,5.469345
2019-01-28 22:48:57:4857,0.190308,-0.106979,0.047150,0.127197,0.922455,7.224472
2019-01-28 22:48:57:4857,0.190308,-0.106979,0.047150,0.862976,1.101929,6.408524
2019-01-28 22:48:57:4857,0.190308,-0.106979,0.047150,0.855804,0.867432,5.228867
2019-01-28 22:48:57:4857,-0.182632,0.017212,0.017227,0.855804,0.867432,5.228867
2019-01-28 22:48:57:4857,-0.182632,0.017212,0.017227,0.702667,0.722656,6.802139
2019-01-28 22:48:57:4857,-0.182632,0.017212,0.017227,0.707458,1.040909,9.168640
2019-01-28 22:48:57:4857,-0.182632,0.017212,0.017227,0.434662,0.868622,10.991974
2019-01-28 22:48:57:4857,-0.182632,0.017212,0.017227,0.026688,0.869812,12.487488
2019-01-28 22:48:57:4857,-0.182632,0.017212,0.017227,-0.092957,2.069809,12.266159
2019-01-28 22:48:57:4857,-0.182632,0.017212,0.017227,-0.153976,3.558151,9.634048
2019-01-28 22:48:57:4857,-0.182632,0.017212,0.017227,-0.169525,3.040115,7.357285
2019-01-28 22:48:57:4857,-0.182632,0.017212,0.017227,-0.022369,1.308899,8.377823
2019-01-28 22:48:57:4857,-0.182632,0.017212,0.017227,0.912048,1.194046,10.451202
2019-01-28 22:48:57:4857,-0.182632,0.017212,0.017227,1.766281,1.136627,10.210709
2019-01-28 22:48:57:4857,-0.050018,0.038101,0.052399,1.766281,1.136627,10.210709
2019-01-28 22:48:57:4857,-0.050018,0.038101,0.052399,0.929977,-0.583832,10.613907
2019-01-28 22:48:57:4857,-0.050018,0.038101,0.052399,1.097488,-1.106659,13.552292
2019-01-28 22:48:57:4857,-0.050018,0.038101,0.052399,1.087906,0.421158,13.049805
2019-01-28 22:48:57:4857,-0.050018,0.038101,0.052399,0.523209,1.915482,8.839630
2019-01-28 22:48:57:4857,-0.050018,0.038101,0.052399,-0.126450,1.862839,6.056778
2019-01-28 22:48:57:4857,-0.050018,0.038101,0.052399,-0.427948,1.348373,8.052383
2019-01-28 22:48:57:4857,-0.050018,0.038101,0.052399,0.088913,1.866425,9.983398
2019-01-28 22:48:57:4857,-0.050018,0.038101,0.052399,0.768463,2.249283,8.947311
2019-01-28 22:48:57:4857,-0.050018,0.038101,0.052399,0.752914,1.513489,7.394363
2019-01-28 22:48:57:4857,-0.027771,0.119827,-0.024261,0.752914,1.513489,7.394363
2019-01-28 22:48:57:4857,-0.027771,0.119827,-0.024261,0.785217,0.624557,9.072937
2019-01-28 22:48:57:4857,-0.027771,0.119827,-0.024261,1.115433,0.751373,11.709824
2019-01-28 22:48:57:4857,-0.027771,0.119827,-0.024261,0.685913,0.381683,12.236237
2019-01-28 22:48:57:4857,-0.027771,0.119827,-0.024261,0.191788,0.071808,12.306824
2019-01-28 22:48:57:4857,-0.027771,0.119827,-0.024261,0.388016,0.910492,11.431061
2019-01-28 22:48:57:4857,-0.027771,0.119827,-0.024261,0.435867,1.718079,9.101654
2019-01-28 22:48:57:4857,-0.027771,0.119827,-0.024261,-0.235321,1.448883,7.606125
2019-01-28 22:48:57:4857,-0.027771,0.119827,-0.024261,-0.412399,1.148590,8.722382
2019-01-28 22:48:57:4857,-0.027771,0.119827,-0.024261,-0.078598,1.749176,9.125580
2019-01-28 22:48:57:4857,-0.027771,0.119827,-0.024261,0.757690,2.011185,9.650803
2019-01-28 22:48:57:4857,0.202087,0.038284,-0.204391,0.757690,2.011185,9.650803
2019-01-28 22:48:57:4857,0.202087,0.038284,-0.204391,0.594986,1.116272,10.589981
2019-01-28 22:48:57:4857,0.202087,0.038284,-0.204391,0.112839,0.431931,10.714401
2019-01-28 22:48:57:4857,0.202087,0.038284,-0.204391,0.370071,0.801620,11.157089
2019-01-28 22:48:57:4857,0.202087,0.038284,-0.204391,0.644043,1.619965,9.848206
2019-01-28 22:48:58:4858,0.202087,0.038284,-0.204391,0.466965,2.660843,6.811722
2019-01-28 22:48:58:4858,0.202087,0.038284,-0.204391,-0.069031,3.036514,5.270737
2019-01-28 22:48:58:4858,0.202087,0.038284,-0.204391,-0.788071,2.452667,8.507034
2019-01-28 22:48:58:4858,0.202087,0.038284,-0.204391,-0.027161,1.629547,13.601349
2019-01-28 22:48:58:4858,0.202087,0.038284,-0.204391,0.889297,0.934433,14.399353
2019-01-28 22:48:58:4858,0.068741,-0.078018,0.034576,0.889297,0.934433,14.399353
2019-01-28 22:48:58:4858,0.068741,-0.078018,0.034576,0.723007,0.918869,11.937134
2019-01-28 22:48:58:4858,0.068741,-0.078018,0.034576,0.663193,0.948776,12.385803
2019-01-28 22:48:58:4858,0.068741,-0.078018,0.034576,0.452621,0.957153,12.103439
2019-01-28 22:48:58:4858,0.068741,-0.078018,0.034576,0.021912,1.538605,10.182007
2019-01-28 22:48:58:4858,0.068741,-0.078018,0.034576,0.000366,2.333023,7.831055
2019-01-28 22:48:58:4858,0.068741,-0.078018,0.034576,0.270767,2.837906,5.678711
2019-01-28 22:48:58:4858,0.068741,-0.078018,0.034576,-0.086975,2.341400,5.910812
2019-01-28 22:48:58:4858,0.068741,-0.078018,0.034576,-0.017578,1.293350,8.252197
2019-01-28 22:48:58:4858,0.068741,-0.078018,0.034576,0.427490,0.570709,10.296860
2019-01-28 22:48:58:4858,0.068741,-0.078018,0.034576,0.606949,0.434326,10.170044
2019-01-28 22:48:58:4858,0.068741,-0.078018,0.034576,0.701462,0.725052,8.451996
2019-01-28 22:48:58:4858,0.068741,-0.078018,0.034576,0.226501,1.428543,7.287888
2019-01-28 22:48:58:4858,0.068741,-0.078018,0.034576,-0.023560,1.081573,11.014709
2019-01-28 22:48:58:4858,0.068741,-0.078018,0.034576,0.943146,1.064835,11.019485
2019-01-28 22:48:58:4858,0.068741,-0.078018,0.034576,0.811539,1.399826,9.799149
2019-01-28 22:48:58:4858,0.068741,-0.078018,0.034576,-0.136017,1.708496,9.583801
2019-01-28 22:48:58:4858,0.068741,-0.078018,0.034576,-0.411194,1.816177,10.366257
2019-01-28 22:48:58:4858,0.068741,-0.078018,0.034576,-0.564331,1.990845,10.564850
2019-01-28 22:48:58:4858,0.068741,-0.078018,0.034576,-0.138412,2.237305,9.899643
2019-01-28 22:48:58:4858,-0.114395,-0.019196,-0.112396,-0.138412,2.237305,9.899643
2019-01-28 22:48:58:4858,-0.114395,-0.019196,-0.112396,0.105652,2.199020,9.145905
2019-01-28 22:48:58:4858,-0.114395,-0.019196,-0.112396,-0.107315,2.005203,9.562256
2019-01-28 22:48:58:4858,-0.114395,-0.019196,-0.112396,-0.337021,2.132034,10.265747
2019-01-28 22:48:58:4858,-0.114395,-0.019196,-0.112396,-0.303513,2.299530,10.026474
2019-01-28 22:48:58:4858,-0.114395,-0.019196,-0.112396,-0.085770,2.165527,9.607727
2019-01-28 22:48:58:4858,-0.114395,-0.019196,-0.112396,-0.085770,2.165527,9.607727
2019-01-28 22:48:58:4858,-0.114395,-0.019196,-0.112396,0.797180,1.359756,10.854980
2019-01-28 22:48:58:4858,-0.114395,-0.019196,-0.112396,0.848633,1.001419,11.242035
2019-01-28 22:48:58:4858,-0.114395,-0.019196,-0.112396,0.522003,1.378296,10.902252
2019-01-28 22:48:58:4858,-0.114395,-0.019196,-0.112396,-0.018784,2.272018,9.896057
2019-01-28 22:48:58:4858,-0.114395,-0.019196,-0.112396,0.055405,1.891556,9.430664
2019-01-28 22:48:58:4858,-0.114395,-0.019196,-0.112396,-0.415985,0.542007,11.097260
2019-01-28 22:48:58:4858,-0.114395,-0.019196,-0.112396,-0.127655,0.495346,11.889282
2019-01-28 22:48:58:4858,-0.114395,-0.019196,-0.112396,0.025497,1.033722,9.174622
2019-01-28 22:48:58:4858,0.213364,-0.070877,-0.015457,0.025497,1.033722,9.174622
2019-01-28 22:48:58:4858,0.213364,-0.070877,-0.015457,0.644043,1.641510,5.015900
2019-01-28 22:48:58:4858,0.213364,-0.070877,-0.015457,1.093887,2.775696,1.901642
2019-01-28 22:48:58:4858,0.213364,-0.070877,-0.015457,-0.157562,2.684769,1.402740
2019-01-28 22:48:58:4858,0.213364,-0.070877,-0.015457,-1.419769,1.807800,5.466949
2019-01-28 22:48:58:4858,0.213364,-0.070877,-0.015457,-1.142212,1.366318,11.209732
2019-01-28 22:48:58:4858,0.213364,-0.070877,-0.015457,-0.104919,0.461838,15.220093
2019-01-28 22:48:58:4858,0.213364,-0.070877,-0.015457,1.532974,-0.750122,17.195374
2019-01-28 22:48:58:4858,0.213364,-0.070877,-0.015457,0.790009,-0.159103,15.065750
2019-01-28 22:48:58:4858,0.213364,-0.070877,-0.015457,-0.265244,1.182083,10.110214
2019-01-28 22:48:58:4858,-0.203094,0.123199,-0.080704,-0.265244,1.182083,10.110214
2019-01-28 22:48:58:4858,-0.203094,0.123199,-0.080704,-0.743805,0.629333,9.137527
2019-01-28 22:48:58:4858,-0.203094,0.123199,-0.080704,-0.700729,0.070618,9.824280
2019-01-28 22:48:59:4859,-0.203094,0.123199,-0.080704,0.055405,0.842300,9.007126
2019-01-28 22:48:59:4859,-0.203094,0.123199,-0.080704,-0.569122,1.557755,8.868347
2019-01-28 22:48:59:4859,-0.203094,0.123199,-0.080704,-0.676804,2.469421,9.421082
2019-01-28 22:48:59:4859,-0.203094,0.123199,-0.080704,-0.497345,2.567520,9.650803
2019-01-28 22:48:59:4859,-0.203094,0.123199,-0.080704,-0.607407,3.280579,8.617096
2019-01-28 22:48:59:4859,-0.203094,0.123199,-0.080704,-0.337021,3.448074,8.803741
2019-01-28 22:48:59:4859,-0.203094,0.123199,-0.080704,-0.102524,3.756760,9.892471
2019-01-28 22:48:59:4859,0.655045,-0.090179,-0.227493,-0.102524,3.756760,9.892471
2019-01-28 22:48:59:4859,0.655045,-0.090179,-0.227493,0.311432,3.582077,9.234451
2019-01-28 22:48:59:4859,0.655045,-0.090179,-0.227493,0.148727,3.536621,9.011917
2019-01-28 22:48:59:4859,0.655045,-0.090179,-0.227493,-0.566727,3.902710,10.071930
2019-01-28 22:48:59:4859,0.655045,-0.090179,-0.227493,-0.360947,3.680191,10.002533
2019-01-28 22:48:59:4859,0.655045,-0.090179,-0.227493,-0.104919,2.967117,9.729752
2019-01-28 22:48:59:4859,0.655045,-0.090179,-0.227493,-0.078598,2.646484,11.045807
2019-01-28 22:48:59:4859,0.655045,-0.090179,-0.227493,-0.171921,3.318863,11.519592
2019-01-28 22:48:59:4859,0.655045,-0.090179,-0.227493,0.586609,2.495743,10.555283
2019-01-28 22:48:59:4859,0.655045,-0.090179,-0.227493,0.663177,1.064835,8.473526
2019-01-28 22:48:59:4859,-0.518539,-0.126709,0.279633,0.663177,1.064835,8.473526
2019-01-28 22:48:59:4859,-0.518539,-0.126709,0.279633,0.340149,0.236908,9.138733
2019-01-28 22:48:59:4859,-0.518539,-0.126709,0.279633,0.033875,0.480972,8.755875
2019-01-28 22:48:59:4859,-0.518539,-0.126709,0.279633,-0.138412,1.497925,9.571838
2019-01-28 22:48:59:4859,-0.518539,-0.126709,0.279633,-0.193451,2.660843,8.495056
2019-01-28 22:48:59:4859,-0.518539,-0.126709,0.279633,1.103455,1.024155,7.542725
2019-01-28 22:48:59:4859,-0.518539,-0.126709,0.279633,0.160690,0.607803,8.992767
2019-01-28 22:48:59:4859,-0.518539,-0.126709,0.279633,-0.090561,1.773102,8.502243
2019-01-28 22:48:59:4859,-0.518539,-0.126709,0.279633,-0.069031,2.787659,7.681503
2019-01-28 22:48:59:4859,-0.518539,-0.126709,0.279633,0.603363,2.670410,8.212708
2019-01-28 22:48:59:4859,-0.028381,0.157333,-0.062790,0.603363,2.670410,8.212708
2019-01-28 22:48:59:4859,-0.028381,0.157333,-0.062790,0.452606,1.500320,8.760666
2019-01-28 22:48:59:4859,-0.028381,0.157333,-0.062790,-0.346588,1.703705,9.416306
2019-01-28 22:48:59:4859,-0.028381,0.157333,-0.062790,-0.344193,2.517273,9.660370
2019-01-28 22:48:59:4859,-0.028381,0.157333,-0.062790,-0.138412,2.500519,8.923370
2019-01-28 22:48:59:4859,-0.028381,0.157333,-0.062790,0.105652,1.797028,10.057571
2019-01-28 22:48:59:4859,-0.028381,0.157333,-0.062790,0.768463,1.529037,11.017090
2019-01-28 22:48:59:4859,-0.028381,0.157333,-0.062790,1.014923,1.816177,10.871140
2019-01-28 22:48:59:4859,-0.028381,0.157333,-0.062790,0.775650,1.813782,10.569641
2019-01-28 22:48:59:4859,-0.028381,0.157333,-0.062790,0.404755,1.775497,11.359268
2019-01-28 22:48:59:4859,-0.297165,-0.101532,0.241882,0.404755,1.775497,11.359268
2019-01-28 22:48:59:4859,-0.297165,-0.101532,0.241882,0.323395,1.615173,10.942917
2019-01-28 22:48:59:4859,-0.297165,-0.101532,0.241882,0.510040,0.681976,9.641220
2019-01-28 22:48:59:4859,-0.297165,-0.101532,0.241882,0.919205,-0.066971,9.038239
2019-01-28 22:48:59:4859,-0.297165,-0.101532,0.241882,0.378433,0.134018,9.272736
2019-01-28 22:48:59:4859,-0.297165,-0.101532,0.241882,-0.837112,1.040894,10.009720
2019-01-28 22:48:59:4859,-0.297165,-0.101532,0.241882,-0.959152,1.490753,10.198746
2019-01-28 22:48:59:4859,-0.297165,-0.101532,0.241882,0.320999,0.488159,9.198547
2019-01-28 22:48:59:4859,-0.297165,-0.101532,0.241882,0.923996,-0.346939,10.019287
2019-01-28 22:48:59:4859,-0.297165,-0.101532,0.241882,0.620102,0.134018,9.179413
2019-01-28 22:48:59:4859,0.513687,0.149521,-0.167130,0.620102,0.134018,9.179413
2019-01-28 22:48:59:4859,0.513687,0.149521,-0.167130,0.143936,1.273010,7.853790
2019-01-28 22:48:59:4859,0.513687,0.149521,-0.167130,-0.114487,1.751572,8.205536
2019-01-28 22:48:59:4859,0.513687,0.149521,-0.167130,-0.018768,1.770706,8.585983
2019-01-28 22:48:59:4859,0.513687,0.149521,-0.167130,0.122406,2.419159,8.865952
2019-01-28 22:49:00:490,0.513687,0.149521,-0.167130,0.189407,2.952759,9.157867
2019-01-28 22:49:00:490,0.513687,0.149521,-0.167130,-0.133636,3.146591,8.920990
2019-01-28 22:49:00:490,0.513687,0.149521,-0.167130,0.086517,2.691956,9.605331
2019-01-28 22:49:00:490,0.513687,0.149521,-0.167130,0.388000,2.636917,10.088684
2019-01-28 22:49:00:490,0.513687,0.149521,-0.167130,0.036255,2.842697,10.031250
2019-01-28 22:49:00:490,-0.202240,-0.096527,0.133163,0.036255,2.842697,10.031250
2019-01-28 22:49:00:490,-0.202240,-0.096527,0.133163,-0.152771,3.199234,10.495468
2019-01-28 22:49:00:490,-0.202240,-0.096527,0.133163,0.414322,3.014984,10.514603
2019-01-28 22:49:00:490,-0.202240,-0.096527,0.133163,1.031677,2.426346,10.452393
2019-01-28 22:49:00:490,-0.202240,-0.096527,0.133163,1.074753,1.957352,10.995560
2019-01-28 22:49:00:490,-0.202240,-0.096527,0.133163,0.543533,2.160736,10.464355
2019-01-28 22:49:00:490,-0.202240,-0.096527,0.133163,0.739746,2.172699,10.148499
2019-01-28 22:49:00:490,-0.202240,-0.096527,0.133163,0.811539,2.158356,9.873322
2019-01-28 22:49:00:490,-0.202240,-0.096527,0.133163,0.433472,1.878387,10.079117
2019-01-28 22:49:00:490,-0.202240,-0.096527,0.133163,0.105652,1.148575,10.605530
2019-01-28 22:49:00:490,-0.481888,0.110794,0.024918,0.105652,1.148575,10.605530
2019-01-28 22:49:00:490,-0.481888,0.110794,0.024918,-0.092957,0.394836,11.612915
2019-01-28 22:49:00:490,-0.481888,0.110794,0.024918,0.060196,0.607803,12.235046
2019-01-28 22:49:00:490,-0.481888,0.110794,0.024918,0.105652,1.344788,9.830261
2019-01-28 22:49:00:490,-0.481888,0.110794,0.024918,0.263580,1.852066,6.367844
2019-01-28 22:49:00:490,-0.481888,0.110794,0.024918,0.122406,1.742004,4.475113
2019-01-28 22:49:00:490,-0.481888,0.110794,0.024918,-0.037918,0.763336,5.559067
2019-01-28 22:49:00:490,-0.481888,0.110794,0.024918,0.220505,0.337418,7.281906
2019-01-28 22:49:00:490,-0.481888,0.110794,0.024918,0.598572,0.198624,8.334747
2019-01-28 22:49:00:490,-0.481888,0.110794,0.024918,1.223099,-0.423508,9.320587
2019-01-28 22:49:00:490,-0.146896,0.062653,-0.148804,1.223099,-0.423508,9.320587
2019-01-28 22:49:00:490,-0.146896,0.062653,-0.148804,1.792587,-1.215530,11.498047
2019-01-28 22:49:00:490,-0.146896,0.062653,-0.148804,1.945740,-0.665176,13.627670
2019-01-28 22:49:00:490,-0.146896,0.062653,-0.148804,1.280533,0.248871,12.962463
2019-01-28 22:49:00:490,-0.146896,0.062653,-0.148804,0.285110,0.959549,11.443024
2019-01-28 22:49:00:490,-0.146896,0.062653,-0.148804,-0.492554,1.675003,9.844620
2019-01-28 22:49:00:490,-0.146896,0.062653,-0.148804,-0.492554,2.100922,8.349106
2019-01-28 22:49:00:490,-0.146896,0.062653,-0.148804,-0.023560,1.667816,6.853592
2019-01-28 22:49:00:490,-0.146896,0.062653,-0.148804,0.213333,0.677185,6.867935
2019-01-28 22:49:00:490,-0.146896,0.062653,-0.148804,0.672745,0.143585,8.066742
2019-01-28 22:49:00:490,-0.146896,0.062653,-0.148804,1.108246,0.524048,8.155273
2019-01-28 22:49:00:490,-0.146896,0.062653,-0.148804,0.947922,0.770508,8.042816
2019-01-28 22:49:00:490,-0.146896,0.062653,-0.148804,0.586609,0.447479,9.265549
2019-01-28 22:49:00:490,-0.146896,0.062653,-0.148804,0.146332,0.002411,12.168045
2019-01-28 22:49:00:490,-0.146896,0.062653,-0.148804,0.146332,0.002411,12.168045
2019-01-28 22:49:00:490,-0.146896,0.062653,-0.148804,-0.494339,-0.053223,13.300446
2019-01-28 22:49:00:490,-0.146896,0.062653,-0.148804,-0.713898,0.475006,11.843826
2019-01-28 22:49:00:490,-0.146896,0.062653,-0.148804,-0.981888,1.423752,9.005936
2019-01-28 22:49:00:490,-0.146896,0.062653,-0.148804,-1.082382,1.963333,6.220688
2019-01-28 22:49:00:490,-0.146896,0.062653,-0.148804,-1.103928,1.488373,5.323380
2019-01-28 22:49:00:490,-0.146896,0.062653,-0.148804,-0.843109,0.563538,6.668152
2019-01-28 22:49:00:490,-0.146896,0.062653,-0.148804,0.301865,-0.031082,9.465363
2019-01-28 22:49:00:490,-0.146896,0.062653,-0.148804,1.876343,-0.401978,12.919388
2019-01-28 22:49:00:490,0.211746,0.039108,-0.191849,1.876343,-0.401978,12.919388
2019-01-28 22:49:00:490,0.211746,0.039108,-0.191849,1.145340,0.003616,12.176422
2019-01-28 22:49:00:490,0.211746,0.039108,-0.191849,0.311432,0.433121,9.586182
2019-01-28 22:49:00:490,0.211746,0.039108,-0.191849,0.165482,1.306503,9.086090
2019-01-28 22:49:00:490,0.211746,0.039108,-0.191849,0.019516,2.179886,8.585983
2019-01-28 22:49:00:490,0.211746,0.039108,-0.191849,0.081726,1.947784,8.418488
2019-01-28 22:49:00:490,0.211746,0.039108,-0.191849,0.084122,1.143799,9.646011
2019-01-28 22:49:00:490,0.211746,0.039108,-0.191849,-0.006805,1.258652,11.797150
2019-01-28 22:49:00:490,0.211746,0.039108,-0.191849,0.383224,1.273010,12.007721
2019-01-28 22:49:00:490,0.211746,0.039108,-0.191849,0.048218,0.425949,11.148697
2019-01-28 22:49:00:490,0.211746,0.039108,-0.191849,-0.035522,0.344589,11.060165
2019-01-28 22:49:00:490,-0.165649,-0.205078,0.186905,-0.035522,0.344589,11.060165
2019-01-28 22:49:00:490,-0.165649,-0.205078,0.186905,0.249222,1.483566,10.122177
2019-01-28 22:49:01:491,-0.165649,-0.205078,0.186905,0.249222,1.483566,10.122177
2019-01-28 22:49:01:491,-0.165649,-0.205078,0.186905,0.175659,1.777893,7.306427
2019-01-28 22:49:01:491,-0.165649,-0.205078,0.186905,0.337753,0.285965,8.498657
2019-01-28 22:49:01:491,-0.165649,-0.205078,0.186905,1.413330,-0.933182,13.005539
2019-01-28 22:49:01:491,-0.165649,-0.205078,0.186905,1.381027,-0.533585,13.108429
2019-01-28 22:49:01:491,-0.165649,-0.205078,0.186905,0.979034,0.093338,11.119995
2019-01-28 22:49:01:491,-0.165649,-0.205078,0.186905,0.336563,0.463043,10.662964
2019-01-28 22:49:01:491,-0.165649,-0.205078,0.186905,-0.244904,0.603012,10.503845
2019-01-28 22:49:01:491,-0.165649,-0.205078,0.186905,-0.499725,0.991852,9.915207
2019-01-28 22:49:01:491,-0.005905,0.079361,-0.059387,-0.499725,0.991852,9.915207
2019-01-28 22:49:01:491,-0.005905,0.079361,-0.059387,-0.362152,1.521866,8.393372
2019-01-28 22:49:01:491,-0.005905,0.079361,-0.059387,-0.031937,1.575699,6.516205
2019-01-28 22:49:01:491,-0.005905,0.079361,-0.059387,-0.096542,0.623352,6.925369
2019-01-28 22:49:01:491,-0.005905,0.079361,-0.059387,0.439453,-0.491699,9.766846
2019-01-28 22:49:01:491,-0.005905,0.079361,-0.059387,0.871368,-0.290710,11.324570
2019-01-28 22:49:01:491,-0.005905,0.079361,-0.059387,0.853424,0.569519,9.409119
2019-01-28 22:49:01:491,-0.005905,0.079361,-0.059387,0.685913,0.427139,7.953094
2019-01-28 22:49:01:491,-0.005905,0.079361,-0.059387,-0.151581,0.534821,8.684097
2019-01-28 22:49:01:491,-0.005905,0.079361,-0.059387,-0.822769,1.512283,9.484497
2019-01-28 22:49:01:491,-0.005905,0.079361,-0.059387,-1.100327,2.431137,9.647202
2019-01-28 22:49:01:491,0.175949,0.018616,-0.150879,-1.100327,2.431137,9.647202
2019-01-28 22:49:01:491,0.175949,0.018616,-0.150879,-0.679199,2.045883,9.584991
2019-01-28 22:49:01:491,0.175949,0.018616,-0.150879,-0.827545,0.897339,10.710815
2019-01-28 22:49:01:491,0.175949,0.018616,-0.150879,-0.069031,0.656860,11.039825
2019-01-28 22:49:01:491,0.175949,0.018616,-0.150879,0.522003,1.380692,10.494263
2019-01-28 22:49:01:491,0.175949,0.018616,-0.150879,0.356903,1.879593,10.505035
2019-01-28 22:49:01:491,0.175949,0.018616,-0.150879,0.026688,1.233521,11.577026
2019-01-28 22:49:01:491,0.175949,0.018616,-0.150879,0.393997,1.039703,12.025681
2019-01-28 22:49:01:491,0.175949,0.018616,-0.150879,0.405960,1.038513,10.422485
2019-01-28 22:49:01:491,0.175949,0.018616,-0.150879,0.164276,0.735825,9.546707
2019-01-28 22:49:01:491,-0.100159,-0.145447,-0.093338,0.164276,0.735825,9.546707
2019-01-28 22:49:01:491,-0.100159,-0.145447,-0.093338,0.263580,0.859055,9.328964
2019-01-28 22:49:01:491,-0.100159,-0.145447,-0.093338,-0.223358,1.598434,9.496460
2019-01-28 22:49:01:491,-0.100159,-0.145447,-0.093338,-0.308304,1.780289,9.653183
2019-01-28 22:49:01:491,-0.100159,-0.145447,-0.093338,-0.334625,1.008606,10.211899
2019-01-28 22:49:01:491,-0.100159,-0.145447,-0.093338,-0.360947,0.236908,10.770630
2019-01-28 22:49:01:491,-0.100159,-0.145447,-0.093338,-0.236526,0.332626,11.507629
2019-01-28 22:49:01:491,-0.100159,-0.145447,-0.093338,0.464569,1.112686,9.952286
2019-01-28 22:49:01:491,-0.100159,-0.145447,-0.093338,0.730179,1.466827,7.487686
2019-01-28 22:49:01:491,-0.100159,-0.145447,-0.093338,0.522003,0.557556,6.753082
2019-01-28 22:49:01:491,-0.100159,-0.145447,-0.093338,0.349716,0.380478,9.684296
2019-01-28 22:49:01:491,-0.100159,-0.145447,-0.093338,0.615326,1.483566,10.459564
2019-01-28 22:49:01:491,-0.056122,-0.135925,0.068649,0.615326,1.483566,10.459564
2019-01-28 22:49:01:491,-0.056122,-0.135925,0.068649,0.593796,2.311493,8.258179
2019-01-28 22:49:01:491,-0.056122,-0.135925,0.068649,0.242050,1.086365,7.753281
2019-01-28 22:49:01:491,-0.056122,-0.135925,0.068649,0.732574,-0.189011,10.397354
2019-01-28 22:49:01:491,-0.056122,-0.135925,0.068649,1.378632,-0.174652,12.194366
2019-01-28 22:49:01:491,-0.056122,-0.135925,0.068649,1.357101,-0.117233,11.433441
2019-01-28 22:49:01:491,-0.056122,-0.135925,0.068649,1.335556,-0.157898,9.626862
2019-01-28 22:49:01:491,-0.056122,-0.135925,0.068649,0.289902,0.454666,8.846802
2019-01-28 22:49:01:491,-0.056122,-0.135925,0.068649,-0.138412,1.536209,7.604935
2019-01-28 22:49:01:491,-0.056122,-0.135925,0.068649,-0.313095,2.182281,5.492065
2019-01-28 22:49:02:492,0.139847,-0.019440,0.077576,-0.313095,2.182281,5.492065
2019-01-28 22:49:02:492,0.139847,-0.019440,0.077576,0.158295,1.828140,4.317200
2019-01-28 22:49:02:492,0.139847,-0.019440,0.077576,0.182220,0.686768,5.556671
2019-01-28 22:49:02:492,0.139847,-0.019440,0.077576,0.165466,0.191452,8.650589
2019-01-28 22:49:02:492,0.139847,-0.019440,0.077576,0.799576,0.512085,9.794357
2019-01-28 22:49:02:492,0.139847,-0.019440,0.077576,1.034073,0.995438,8.200745
2019-01-28 22:49:02:492,0.139847,-0.019440,0.077576,0.957504,1.136612,7.473328
2019-01-28 22:49:02:492,0.139847,-0.019440,0.077576,0.348526,1.278992,11.788788
2019-01-28 22:49:02:492,0.139847,-0.019440,0.077576,0.828293,0.076599,13.344116
2019-01-28 22:49:02:492,0.139847,-0.019440,0.077576,1.560486,-0.641266,14.653000
2019-01-28 22:49:02:492,0.139847,-0.019440,0.077576,1.096283,-0.130386,13.987793
2019-01-28 22:49:02:492,0.139847,-0.019440,0.077576,0.803162,0.622162,11.615311
2019-01-28 22:49:02:492,0.139847,-0.019440,0.077576,0.636856,0.806412,9.632858
2019-01-28 22:49:02:492,0.139847,-0.019440,0.077576,0.605759,0.958359,9.558670
2019-01-28 22:49:02:492,-0.197418,-0.147415,0.196991,0.605759,0.958359,9.558670
2019-01-28 22:49:02:492,-0.197418,-0.147415,0.196991,1.266174,0.723862,9.716599
2019-01-28 22:49:02:492,-0.197418,-0.147415,0.196991,1.199173,0.268021,9.428268
2019-01-28 22:49:02:492,-0.197418,-0.147415,0.196991,0.973053,0.026352,9.269135
2019-01-28 22:49:02:492,-0.197418,-0.147415,0.196991,0.749329,0.116074,8.449600
2019-01-28 22:49:02:492,-0.197418,-0.147415,0.196991,0.353317,0.522858,6.104645
2019-01-28 22:49:02:492,-0.197418,-0.147415,0.196991,-0.017578,1.033722,3.581406
2019-01-28 22:49:02:492,-0.197418,-0.147415,0.196991,1.309250,1.191650,9.870941
2019-01-28 22:49:02:492,-0.197418,-0.147415,0.196991,1.349915,1.483566,9.674728
2019-01-28 22:49:02:492,-0.197418,-0.147415,0.196991,1.366669,1.502716,9.332550
2019-01-28 22:49:02:492,-0.197418,-0.147415,0.196991,0.804352,1.430923,9.076523
2019-01-28 22:49:02:492,-0.197418,-0.147415,0.196991,-0.164734,1.744385,9.198547
2019-01-28 22:49:02:492,-0.197418,-0.147415,0.196991,-0.779694,1.983673,9.112411
2019-01-28 22:49:02:492,-0.197418,-0.147415,0.196991,-0.971115,1.947784,8.691269
2019-01-28 22:49:02:492,0.005447,0.042374,-0.219666,-0.971115,1.947784,8.691269
2019-01-28 22:49:02:492,0.005447,0.042374,-0.219666,-0.270020,1.718063,8.990372
2019-01-28 22:49:02:492,0.005447,0.042374,-0.219666,0.466965,1.383072,9.490479
2019-01-28 22:49:02:492,0.005447,0.042374,-0.219666,0.952713,1.703705,9.801544
2019-01-28 22:49:02:492,0.005447,0.042374,-0.219666,1.328384,1.789856,10.361465
2019-01-28 22:49:02:492,0.005447,0.042374,-0.219666,1.873947,1.462036,11.900055
2019-01-28 22:49:02:492,0.005447,0.042374,-0.219666,1.756699,1.485962,10.897461
2019-01-28 22:49:02:492,0.005447,0.042374,-0.219666,2.019913,1.265823,9.894867
2019-01-28 22:49:02:492,0.005447,0.042374,-0.219666,1.742340,1.028931,10.227463
2019-01-28 22:49:02:492,0.005447,0.042374,-0.219666,0.579437,1.433319,10.562454
2019-01-28 22:49:02:492,-0.118057,-0.030426,-0.172256,0.579437,1.433319,10.562454
2019-01-28 22:49:02:492,-0.118057,-0.030426,-0.172256,-1.677002,2.313889,10.725174
2019-01-28 22:49:02:492,-0.118057,-0.030426,-0.172256,-2.677200,2.878586,10.983597
2019-01-28 22:49:02:492,-0.118057,-0.030426,-0.172256,-1.243896,2.457458,11.292267
2019-01-28 22:49:02:492,-0.118057,-0.030426,-0.172256,0.014725,1.002609,11.177414
2019-01-28 22:49:02:492,-0.118057,-0.030426,-0.172256,1.005356,0.296738,10.067139
2019-01-28 22:49:02:492,-0.118057,-0.030426,-0.172256,1.455200,0.603012,8.851593
2019-01-28 22:49:02:492,-0.118057,-0.030426,-0.172256,1.280533,1.239502,8.456772
2019-01-28 22:49:02:492,-0.118057,-0.030426,-0.172256,0.797180,1.373505,9.102844
2019-01-28 22:49:02:492,-0.118057,-0.030426,-0.172256,0.242050,1.780289,9.497650
2019-01-28 22:49:03:493,0.091705,0.036514,-0.076965,0.242050,1.780289,9.497650
2019-01-28 22:49:03:493,0.091705,0.036514,-0.076965,0.660782,1.899918,9.150696
2019-01-28 22:49:03:493,0.091705,0.036514,-0.076965,0.354507,1.481186,9.464157
2019-01-28 22:49:03:493,0.091705,0.036514,-0.076965,0.129578,1.464432,10.538528
2019-01-28 22:49:03:493,0.091705,0.036514,-0.076965,-0.518875,1.720459,10.471527
2019-01-28 22:49:03:493,0.091705,0.036514,-0.076965,-0.727051,1.660645,9.662766
2019-01-28 22:49:03:493,0.091705,0.036514,-0.076965,-0.284378,1.342392,9.267944
2019-01-28 22:49:03:493,0.091705,0.036514,-0.076965,0.215729,1.261047,8.248596
2019-01-28 22:49:03:493,0.091705,0.036514,-0.076965,0.821106,1.806610,6.284088
2019-01-28 22:49:03:493,0.091705,0.036514,-0.076965,0.718216,2.309097,5.532745
2019-01-28 22:49:03:493,-0.330765,-0.060364,0.324722,0.718216,2.309097,5.532745
2019-01-28 22:49:03:493,-0.330765,-0.060364,0.324722,0.364075,1.615173,7.542725
2019-01-28 22:49:03:493,-0.330765,-0.060364,0.324722,1.055603,0.370911,12.907425
2019-01-28 22:49:03:493,-0.330765,-0.060364,0.324722,1.787811,-0.557510,16.958481
2019-01-28 22:49:03:493,-0.330765,-0.060364,0.324722,1.952911,-0.672363,17.731354
2019-01-28 22:49:03:493,-0.330765,-0.060364,0.324722,1.651413,0.124451,15.549103
2019-01-28 22:49:03:493,-0.330765,-0.060364,0.324722,0.533966,1.249069,12.141724
2019-01-28 22:49:03:493,-0.330765,-0.060364,0.324722,-0.542801,1.988464,9.684296
2019-01-28 22:49:03:493,-0.330765,-0.060364,0.324722,-0.645691,2.421555,7.236435
2019-01-28 22:49:03:493,-0.330765,-0.060364,0.324722,-0.193451,2.481384,4.508621
2019-01-28 22:49:03:493,0.462875,0.099060,0.104080,-0.193451,2.481384,4.508621
2019-01-28 22:49:03:493,0.462875,0.099060,0.104080,0.632080,2.452667,2.826462
2019-01-28 22:49:03:493,0.462875,0.099060,0.104080,1.617920,1.962143,2.682892
2019-01-28 22:49:03:493,0.462875,0.099060,0.104080,1.340347,0.007202,5.444214
2019-01-28 22:49:03:493,0.462875,0.099060,0.104080,1.412140,-1.363892,9.727371
2019-01-28 22:49:03:493,0.462875,0.099060,0.104080,1.883514,-1.107849,12.916992
2019-01-28 22:49:03:493,0.462875,0.099060,0.104080,1.524597,-0.394791,11.076920
2019-01-28 22:49:03:493,0.462875,0.099060,0.104080,0.462189,0.332626,8.947311
2019-01-28 22:49:03:493,0.462875,0.099060,0.104080,-0.676804,1.497925,8.083496
2019-01-28 22:49:03:493,0.462875,0.099060,0.104080,-1.069229,2.641693,7.463760
2019-01-28 22:49:03:493,-0.154831,0.084030,-0.129501,-1.069229,2.641693,7.463760
2019-01-28 22:49:03:493,-0.154831,0.084030,-0.129501,-0.789261,2.926437,6.738724
2019-01-28 22:49:03:493,-0.154831,0.084030,-0.129501,-0.329834,2.146378,6.903839
2019-01-28 22:49:03:493,-0.154831,0.084030,-0.129501,0.538757,1.275391,8.624268
2019-01-28 22:49:03:493,-0.154831,0.084030,-0.129501,1.182419,0.449875,10.349503
2019-01-28 22:49:03:493,-0.154831,0.084030,-0.129501,1.335556,-0.294296,12.323578
2019-01-28 22:49:03:493,-0.154831,0.084030,-0.129501,1.086716,0.196228,12.637039
2019-01-28 22:49:03:493,-0.154831,0.084030,-0.129501,0.533966,1.507507,11.108017
2019-01-28 22:49:03:493,-0.154831,0.084030,-0.129501,0.115219,1.722855,10.330353
2019-01-28 22:49:03:493,-0.154831,0.084030,-0.129501,0.074539,1.473999,11.148697
2019-01-28 22:49:03:493,-0.064423,-0.032394,-0.220520,0.074539,1.473999,11.148697
2019-01-28 22:49:03:493,-0.064423,-0.032394,-0.220520,0.242050,1.816177,11.849792
2019-01-28 22:49:03:493,-0.064423,-0.032394,-0.220520,0.297073,2.000427,11.423874
2019-01-28 22:49:03:493,-0.064423,-0.032394,-0.220520,0.397583,1.009796,11.043411
2019-01-28 22:49:03:493,-0.064423,-0.032394,-0.220520,0.060196,0.562332,11.407120
2019-01-28 22:49:03:493,-0.064423,-0.032394,-0.220520,0.088898,1.007401,10.753891
2019-01-28 22:49:03:493,-0.064423,-0.032394,-0.220520,0.005157,1.732422,9.093262
2019-01-28 22:49:03:493,-0.064423,-0.032394,-0.220520,-0.150375,2.091354,7.380005
2019-01-28 22:49:03:493,-0.064423,-0.032394,-0.220520,-0.169525,2.120056,8.440033
2019-01-28 22:49:03:493,-0.064423,-0.032394,-0.220520,0.632080,2.232529,10.703644
2019-01-28 22:49:03:493,0.141556,-0.126099,-0.185211,0.632080,2.232529,10.703644
2019-01-28 22:49:03:493,0.141556,-0.126099,-0.185211,0.988602,1.093536,11.892868
2019-01-28 22:49:03:493,0.141556,-0.126099,-0.185211,0.718216,-0.069366,11.859375
2019-01-28 22:49:03:493,0.141556,-0.126099,-0.185211,0.782822,-0.071762,11.691879
2019-01-28 22:49:03:493,0.141556,-0.126099,-0.185211,0.402359,0.626938,12.469543
2019-01-28 22:49:03:493,0.141556,-0.126099,-0.185211,0.124802,0.588654,10.397354
2019-01-28 22:49:03:493,0.141556,-0.126099,-0.185211,-0.176697,1.088760,8.619492
2019-01-28 22:49:03:493,0.141556,-0.126099,-0.185211,-0.344193,2.002808,6.901443
2019-01-28 22:49:03:493,0.141556,-0.126099,-0.185211,-0.360947,2.639313,4.970428
2019-01-28 22:49:03:493,0.141556,-0.126099,-0.185211,-0.076202,2.244492,3.872131
2019-01-28 22:49:04:494,-0.253677,-0.057922,0.022964,-0.076202,2.244492,3.872131
2019-01-28 22:49:04:494,-0.253677,-0.057922,0.022964,0.368866,0.715469,5.082901
2019-01-28 22:49:04:494,-0.253677,-0.057922,0.022964,1.010132,-0.858994,8.602737
2019-01-28 22:49:04:494,-0.253677,-0.057922,0.022964,1.426483,-0.969070,11.694260
2019-01-28 22:49:04:494,-0.253677,-0.057922,0.022964,0.959885,-0.155518,11.277908
2019-01-28 22:49:04:494,-0.253677,-0.057922,0.022964,0.325790,0.409195,9.662766
2019-01-28 22:49:04:494,-0.253677,-0.057922,0.022964,-0.136017,0.526443,10.258575
2019-01-28 22:49:04:494,-0.253677,-0.057922,0.022964,-0.456665,1.031326,11.323380
2019-01-28 22:49:04:494,-0.253677,-0.057922,0.022964,-1.030945,1.938202,11.127167
2019-01-28 22:49:04:494,-0.253677,-0.057922,0.022964,-0.932831,2.404816,9.349304
2019-01-28 22:49:04:494,-0.253677,-0.057922,0.022964,-0.932831,2.404816,9.349304
2019-01-28 22:49:04:494,-0.253677,-0.057922,0.022964,-0.098343,1.536224,8.340729
2019-01-28 22:49:04:494,-0.253677,-0.057922,0.022964,0.478943,0.808807,9.130356
2019-01-28 22:49:04:494,-0.253677,-0.057922,0.022964,0.738556,0.112488,10.837631
2019-01-28 22:49:04:494,-0.253677,-0.057922,0.022964,1.296082,-0.771667,12.662170
2019-01-28 22:49:04:494,-0.253677,-0.057922,0.022964,1.408554,-0.589813,13.393173
2019-01-28 22:49:04:494,-0.253677,-0.057922,0.022964,0.748123,0.702316,12.792572
2019-01-28 22:49:04:494,-0.253677,-0.057922,0.022964,0.310242,1.960953,11.055389
2019-01-28 22:49:04:494,-0.253677,-0.057922,0.022964,-0.115692,2.414383,9.809921
2019-01-28 22:49:04:494,0.061951,-0.092224,0.202209,-0.115692,2.414383,9.809921
2019-01-28 22:49:04:494,0.061951,-0.092224,0.202209,0.173843,1.684570,9.891281
2019-01-28 22:49:04:494,0.061951,-0.092224,0.202209,0.481339,0.922455,10.400955
2019-01-28 22:49:04:494,0.061951,-0.092224,0.202209,0.701477,0.789658,10.525375
2019-01-28 22:49:04:494,0.061951,-0.092224,0.202209,0.988617,1.305313,9.263168
2019-01-28 22:49:04:494,0.061951,-0.092224,0.202209,0.867767,1.515884,7.974625
2019-01-28 22:49:04:494,0.061951,-0.092224,0.202209,0.437057,1.316071,8.260574
2019-01-28 22:49:04:494,0.061951,-0.092224,0.202209,0.804367,1.112686,9.698654
2019-01-28 22:49:04:494,0.061951,-0.092224,0.202209,0.921600,1.074402,10.342316
2019-01-28 22:49:04:494,0.061951,-0.092224,0.202209,1.078339,1.416580,9.948700
2019-01-28 22:49:04:494,0.061951,-0.092224,0.202209,0.965866,1.928650,8.958084
2019-01-28 22:49:04:494,0.356995,-0.144348,0.281036,0.965866,1.928650,8.958084
2019-01-28 22:49:04:494,0.356995,-0.144348,0.281036,0.904861,1.980087,8.239044
2019-01-28 22:49:04:494,0.356995,-0.144348,0.281036,0.852219,1.317276,8.807327
2019-01-28 22:49:04:494,0.356995,-0.144348,0.281036,1.050827,0.853073,9.835037
2019-01-28 22:49:04:494,0.356995,-0.144348,0.281036,0.836670,1.348373,9.778809
2019-01-28 22:49:04:494,0.356995,-0.144348,0.281036,1.154907,2.206207,8.455582
2019-01-28 22:49:04:494,0.356995,-0.144348,0.281036,1.517426,1.941803,7.123978
2019-01-28 22:49:04:494,0.356995,-0.144348,0.281036,1.255417,0.591049,8.674530
2019-01-28 22:49:04:494,0.356995,-0.144348,0.281036,1.392990,0.301529,11.373642
2019-01-28 22:49:04:494,0.356995,-0.144348,0.281036,1.153717,0.593445,11.866547
2019-01-28 22:49:04:494,0.197449,0.109634,0.021011,1.153717,0.593445,11.866547
2019-01-28 22:49:04:494,0.197449,0.109634,0.021011,0.892899,1.301727,9.328964
2019-01-28 22:49:04:494,0.197449,0.109634,0.021011,0.086517,1.982483,7.121582
2019-01-28 22:49:04:494,0.197449,0.109634,0.021011,-0.223358,2.987457,5.862961
2019-01-28 22:49:04:494,0.197449,0.109634,0.021011,-0.343002,3.735229,4.800552
2019-01-28 22:49:04:494,0.197449,0.109634,0.021011,0.234863,3.175308,5.183395
2019-01-28 22:49:04:494,0.197449,0.109634,0.021011,0.943146,0.848282,8.527359
2019-01-28 22:49:04:494,0.197449,0.109634,0.021011,1.311646,-0.683136,13.734146
2019-01-28 22:49:04:494,0.197449,0.109634,0.021011,2.153915,-0.319427,16.417694
2019-01-28 22:49:04:494,0.197449,0.109634,0.021011,1.946930,0.332626,13.894470
2019-01-28 22:49:04:494,0.197449,0.109634,0.021011,0.574646,1.117477,11.111618
2019-01-28 22:49:05:495,-0.336563,0.126984,-0.150406,0.574646,1.117477,11.111618
2019-01-28 22:49:05:495,-0.336563,0.126984,-0.150406,-0.555969,2.531631,10.647415
2019-01-28 22:49:05:495,-0.336563,0.126984,-0.150406,-1.095551,3.615585,9.709427
2019-01-28 22:49:05:495,-0.336563,0.126984,-0.150406,-0.498535,3.432541,7.649200
2019-01-28 22:49:05:495,-0.336563,0.126984,-0.150406,0.023102,2.589066,6.908615
2019-01-28 22:49:05:495,-0.336563,0.126984,-0.150406,0.837860,1.786270,8.213913
2019-01-28 22:49:05:495,-0.336563,0.126984,-0.150406,1.531784,0.453461,10.312408
2019-01-28 22:49:05:495,-0.336563,0.126984,-0.150406,2.046234,-1.129395,12.815308
2019-01-28 22:49:05:495,-0.336563,0.126984,-0.150406,1.889511,-0.806366,14.693680
2019-01-28 22:49:05:495,-0.336563,0.126984,-0.150406,1.255402,0.941605,13.015106
2019-01-28 22:49:05:495,0.020844,0.004013,-0.005203,1.255402,0.941605,13.015106
2019-01-28 22:49:05:495,0.020844,0.004013,-0.005203,0.231277,2.767334,9.549103
2019-01-28 22:49:05:495,0.020844,0.004013,-0.005203,-0.203033,3.048477,7.304642
2019-01-28 22:49:05:495,0.020844,0.004013,-0.005203,-0.113297,1.743195,8.198364
2019-01-28 22:49:05:495,0.020844,0.004013,-0.005203,0.111633,1.005020,10.222687
2019-01-28 22:49:05:495,0.020844,0.004013,-0.005203,0.755310,0.928436,10.071945
2019-01-28 22:49:05:495,0.020844,0.004013,-0.005203,1.343948,0.687958,8.265350
2019-01-28 22:49:05:495,0.020844,0.004013,-0.005203,0.901276,0.229736,7.625275
2019-01-28 22:49:05:495,0.020844,0.004013,-0.005203,0.456207,0.670013,8.942520
2019-01-28 22:49:05:495,0.020844,0.004013,-0.005203,0.325790,1.459641,9.004745
2019-01-28 22:49:05:495,0.096725,0.038956,-0.051804,0.325790,1.459641,9.004745
2019-01-28 22:49:05:495,0.096725,0.038956,-0.051804,0.399979,1.996841,7.603745
2019-01-28 22:49:05:495,0.096725,0.038956,-0.051804,0.275543,1.950180,6.976822
2019-01-28 22:49:05:495,0.096725,0.038956,-0.051804,0.489700,1.871216,7.528366
2019-01-28 22:49:05:495,0.096725,0.038956,-0.051804,0.300674,1.558945,8.459167
2019-01-28 22:49:05:495,0.096725,0.038956,-0.051804,0.590210,1.110291,9.406738
2019-01-28 22:49:05:495,0.096725,0.038956,-0.051804,0.852219,0.721466,10.101837
2019-01-28 22:49:05:495,0.096725,0.038956,-0.051804,0.809143,0.509689,10.674927
2019-01-28 22:49:05:495,0.096725,0.038956,-0.051804,0.332977,0.707108,11.239624
2019-01-28 22:49:05:495,0.096725,0.038956,-0.051804,0.178635,1.156952,11.617706
2019-01-28 22:49:05:495,0.096725,0.038956,-0.051804,-0.041504,1.389053,11.218094
2019-01-28 22:49:05:495,-0.114090,0.060944,-0.028229,-0.041504,1.389053,11.218094
2019-01-28 22:49:05:495,-0.114090,0.060944,-0.028229,0.147537,1.300522,10.217896
2019-01-28 22:49:05:495,-0.114090,0.060944,-0.028229,0.167877,1.351974,9.376816
2019-01-28 22:49:05:495,-0.114090,0.060944,-0.028229,0.232468,1.694138,8.219894
2019-01-28 22:49:05:495,-0.114090,0.060944,-0.028229,0.189407,1.781479,7.475723
2019-01-28 22:49:05:495,-0.114090,0.060944,-0.028229,0.596191,1.253860,7.657578
2019-01-28 22:49:05:495,-0.114090,0.060944,-0.028229,0.463379,0.604218,9.425873
2019-01-28 22:49:05:495,-0.114090,0.060944,-0.028229,0.897675,0.827942,11.350891
2019-01-28 22:49:05:495,-0.114090,0.060944,-0.028229,1.543747,1.031326,11.617706
2019-01-28 22:49:05:495,-0.114090,0.060944,-0.028229,1.568863,0.471420,11.253998
2019-01-28 22:49:05:495,0.036850,0.018799,-0.007462,1.568863,0.471420,11.253998
2019-01-28 22:49:05:495,0.036850,0.018799,-0.007462,0.855804,0.541992,12.195572
2019-01-28 22:49:05:495,0.036850,0.018799,-0.007462,0.219315,1.826950,11.888092
2019-01-28 22:49:05:495,0.036850,0.018799,-0.007462,0.228882,2.902527,9.241623
2019-01-28 22:49:05:495,0.036850,0.018799,-0.007462,0.146332,2.583069,6.942123
2019-01-28 22:49:05:495,0.036850,0.018799,-0.007462,0.178635,1.465637,7.339340
2019-01-28 22:49:05:495,0.036850,0.018799,-0.007462,0.616531,1.225159,9.794373
2019-01-28 22:49:05:495,0.036850,0.018799,-0.007462,1.290100,1.287369,10.235840
2019-01-28 22:49:05:495,0.036850,0.018799,-0.007462,1.585617,0.586273,9.827866
2019-01-28 22:49:05:495,0.036850,0.018799,-0.007462,1.583221,-0.413940,11.701447
2019-01-28 22:49:05:495,0.036850,0.018799,-0.007462,1.657394,-0.546738,14.236633
2019-01-28 22:49:05:495,0.149689,0.024170,-0.223206,1.657394,-0.546738,14.236633
2019-01-28 22:49:05:495,0.149689,0.024170,-0.223206,1.002960,-0.110062,13.820297
2019-01-28 22:49:05:495,0.149689,0.024170,-0.223206,0.688309,0.702316,10.954880
2019-01-28 22:49:05:495,0.149689,0.024170,-0.223206,0.032684,2.011200,8.310822
2019-01-28 22:49:05:495,0.149689,0.024170,-0.223206,-0.728256,3.336823,5.813904
2019-01-28 22:49:05:495,0.149689,0.024170,-0.223206,-0.254471,3.699326,4.564850
2019-01-28 22:49:05:495,0.149689,0.024170,-0.223206,-0.207809,2.340210,5.661972
2019-01-28 22:49:05:495,0.149689,0.024170,-0.223206,0.021912,0.619766,9.680710
2019-01-28 22:49:05:495,0.149689,0.024170,-0.223206,1.433670,0.189056,12.895462
2019-01-28 22:49:05:495,0.149689,0.024170,-0.223206,2.125198,0.603012,11.709824
2019-01-28 22:49:06:496,-0.155197,0.047760,-0.165421,2.125198,0.603012,11.709824
2019-01-28 22:49:06:496,-0.155197,0.047760,-0.165421,1.385818,0.976303,9.375626
2019-01-28 22:49:06:496,-0.155197,0.047760,-0.165421,0.254013,1.491959,10.203537
2019-01-28 22:49:06:496,-0.155197,0.047760,-0.165421,-0.308304,2.081772,11.604538
2019-01-28 22:49:06:496,-0.155197,0.047760,-0.165421,-0.713898,2.395248,11.042221
2019-01-28 22:49:06:496,-0.155197,0.047760,-0.165421,-0.128845,2.177490,9.533554
2019-01-28 22:49:06:496,-0.155197,0.047760,-0.165421,0.026688,1.603226,9.196167
2019-01-28 22:49:06:496,-0.155197,0.047760,-0.165421,-0.019974,1.109100,9.748901
2019-01-28 22:49:06:496,-0.155197,0.047760,-0.165421,0.181030,0.983475,9.882904
2019-01-28 22:49:06:496,-0.155197,0.047760,-0.165421,0.443039,1.334030,8.950897
2019-01-28 22:49:06:496,-0.155197,0.047760,-0.165421,0.343750,1.814987,7.996170
2019-01-28 22:49:06:496,0.086151,0.067719,-0.250458,0.343750,1.814987,7.996170
2019-01-28 22:49:06:496,0.086151,0.067719,-0.250458,0.297073,2.201416,7.268753
2019-01-28 22:49:06:496,0.086151,0.067719,-0.250458,0.238449,2.138016,7.627670
2019-01-28 22:49:06:496,0.086151,0.067719,-0.250458,0.114029,1.793442,9.153091
2019-01-28 22:49:06:496,0.086151,0.067719,-0.250458,0.298279,1.488358,10.533752
2019-01-28 22:49:06:496,0.086151,0.067719,-0.250458,0.651215,1.380692,11.024277
2019-01-28 22:49:06:496,0.086151,0.067719,-0.250458,0.666779,1.405807,10.317200
2019-01-28 22:49:06:496,0.086151,0.067719,-0.250458,0.439453,1.397430,9.707031
2019-01-28 22:49:06:496,0.086151,0.067719,-0.250458,0.244431,1.252670,9.697464
2019-01-28 22:49:06:496,0.086151,0.067719,-0.250458,0.146332,1.196442,9.935547
2019-01-28 22:49:06:496,0.067764,-0.210449,-0.045578,0.146332,1.196442,9.935547
2019-01-28 22:49:06:496,0.067764,-0.210449,-0.045578,0.301865,1.195236,9.573029
2019-01-28 22:49:06:496,0.067764,-0.210449,-0.045578,-0.159958,1.363937,9.283508
2019-01-28 22:49:06:496,0.067764,-0.210449,-0.045578,-0.429153,1.899933,8.737946
2019-01-28 22:49:06:496,0.067764,-0.210449,-0.045578,-0.530853,2.291153,8.260574
2019-01-28 22:49:06:496,0.067764,-0.210449,-0.045578,-0.957962,1.932236,8.765457
2019-01-28 22:49:06:496,0.067764,-0.210449,-0.045578,-0.739014,1.483566,10.343521
2019-01-28 22:49:06:496,0.067764,-0.210449,-0.045578,-0.138412,1.612793,10.246613
2019-01-28 22:49:06:496,0.067764,-0.210449,-0.045578,0.190598,1.916672,8.917404
2019-01-28 22:49:06:496,0.067764,-0.210449,-0.045578,0.054214,1.862839,8.364655
2019-01-28 22:49:06:496,0.067764,-0.210449,-0.045578,-0.119278,1.710892,9.704636
2019-01-28 22:49:06:496,0.019867,-0.140198,0.252945,-0.119278,1.710892,9.704636
2019-01-28 22:49:06:496,0.019867,-0.140198,0.252945,0.242050,1.690552,10.418900
2019-01-28 22:49:06:496,0.019867,-0.140198,0.252945,0.234879,1.672607,10.537338
2019-01-28 22:49:06:496,0.019867,-0.140198,0.252945,0.633270,2.045898,10.394974
2019-01-28 22:49:06:496,0.019867,-0.140198,0.252945,0.555511,2.148788,10.207138
2019-01-28 22:49:06:496,0.019867,-0.140198,0.252945,0.468170,1.659439,10.731155
2019-01-28 22:49:06:496,0.019867,-0.140198,0.252945,0.614136,1.219177,11.377228
2019-01-28 22:49:06:496,0.019867,-0.140198,0.252945,0.708649,1.389053,10.977615
2019-01-28 22:49:06:496,0.019867,-0.140198,0.252945,0.755310,2.038712,9.403137
2019-01-28 22:49:06:496,0.019867,-0.140198,0.252945,0.547134,2.626144,7.688690
2019-01-28 22:49:06:496,0.175446,-0.058594,0.307495,0.547134,2.626144,7.688690
2019-01-28 22:49:06:496,0.175446,-0.058594,0.307495,0.038666,2.770920,7.013901
2019-01-28 22:49:06:496,0.175446,-0.058594,0.307495,-0.085770,2.822357,7.766449
2019-01-28 22:49:06:496,0.175446,-0.058594,0.307495,0.349716,2.715881,8.231857
2019-01-28 22:49:06:496,0.175446,-0.058594,0.307495,0.932373,2.203812,8.369446
2019-01-28 22:49:06:496,0.175446,-0.058594,0.307495,1.480331,1.442902,9.567047
2019-01-28 22:49:06:496,0.175446,-0.058594,0.307495,1.668167,1.496735,10.874725
2019-01-28 22:49:06:496,0.175446,-0.058594,0.307495,1.053207,1.622360,11.179810
2019-01-28 22:49:06:496,0.175446,-0.058594,0.307495,0.511230,1.768326,10.274124
2019-01-28 22:49:06:496,0.175446,-0.058594,0.307495,0.444244,2.374908,8.658966
2019-01-28 22:49:07:497,-0.128738,0.079330,0.125885,0.444244,2.374908,8.658966
2019-01-28 22:49:07:497,-0.128738,0.079330,0.125885,0.432281,3.117874,6.842819
