Time,Gx,Gy,Gz,Ax,Ay,Az
2019-01-28 23:02:38:238,0.000000,0.000000,0.000000,-0.496140,0.361343,11.227676
2019-01-28 23:02:38:238,0.000000,0.000000,0.000000,-0.340607,0.693939,12.197968
2019-01-28 23:02:39:239,0.000000,0.000000,0.000000,-0.165939,0.906906,11.536346
2019-01-28 23:02:39:239,0.000000,0.000000,0.000000,0.093689,0.856659,10.392578
2019-01-28 23:02:39:239,0.000000,0.000000,0.000000,-0.510498,0.737015,11.207336
2019-01-28 23:02:39:239,0.000000,0.000000,0.000000,-0.601425,1.172501,9.940323
2019-01-28 23:02:39:239,0.000000,0.000000,0.000000,0.064987,1.182083,9.314606
2019-01-28 23:02:39:239,0.000000,0.000000,0.000000,0.227692,1.417770,9.410324
2019-01-28 23:02:39:239,0.000000,0.000000,0.000000,-0.273605,1.733627,9.190186
2019-01-28 23:02:39:239,-0.108231,-0.237503,0.019775,-0.273605,1.733627,9.190186
2019-01-28 23:02:39:239,-0.108231,-0.237503,0.019775,-0.557159,2.191849,9.203339
2019-01-28 23:02:39:239,-0.108231,-0.237503,0.019775,-0.743805,1.959747,9.197357
2019-01-28 23:02:39:239,-0.108231,-0.237503,0.019775,-0.419586,1.155762,9.874527
2019-01-28 23:02:39:239,-0.108231,-0.237503,0.019775,0.090103,0.490555,10.062363
2019-01-28 23:02:39:239,-0.108231,-0.237503,0.019775,0.465775,0.496536,9.634048
2019-01-28 23:02:39:239,-0.108231,-0.237503,0.019775,0.252808,0.824356,9.013107
2019-01-28 23:02:39:239,-0.108231,-0.237503,0.019775,-0.073807,1.154556,7.399155
2019-01-28 23:02:39:239,-0.108231,-0.237503,0.019775,-0.429153,1.103119,7.869339
2019-01-28 23:02:39:239,-0.108231,-0.237503,0.019775,-1.160156,1.468018,9.240433
2019-01-28 23:02:39:239,-0.108231,-0.237503,0.019775,1.050827,0.041901,10.362671
2019-01-28 23:02:39:239,0.027512,0.024597,-0.090591,1.050827,0.041901,10.362671
2019-01-28 23:02:39:239,0.027512,0.024597,-0.090591,-1.206818,1.411789,10.496658
2019-01-28 23:02:39:239,0.027512,0.024597,-0.090591,-1.385071,1.179688,10.109024
2019-01-28 23:02:39:239,0.027512,0.024597,-0.090591,-1.034531,1.098343,10.531357
2019-01-28 23:02:39:239,0.027512,0.024597,-0.090591,-0.576309,0.906906,10.673737
2019-01-28 23:02:39:239,0.027512,0.024597,-0.090591,0.642853,-0.205765,10.086288
2019-01-28 23:02:39:239,0.027512,0.024597,-0.090591,1.363083,0.330231,9.416306
2019-01-28 23:02:39:239,0.027512,0.024597,-0.090591,0.606949,0.788467,8.802551
2019-01-28 23:02:39:239,0.027512,0.024597,-0.090591,0.013535,0.954758,8.588379
2019-01-28 23:02:39:239,0.027512,0.024597,-0.090591,-0.212601,1.122253,9.095673
2019-01-28 23:02:39:239,-0.019104,-0.213074,-0.118088,-0.212601,1.122253,9.095673
2019-01-28 23:02:39:239,-0.019104,-0.213074,-0.118088,-0.015182,1.616379,9.294266
2019-01-28 23:02:39:239,-0.019104,-0.213074,-0.118088,0.667969,1.319672,9.590973
2019-01-28 23:02:39:239,-0.019104,-0.213074,-0.118088,0.610535,0.455856,8.900650
2019-01-28 23:02:39:239,-0.019104,-0.213074,-0.118088,-1.053680,0.629333,10.137741
2019-01-28 23:02:39:239,-0.019104,-0.213074,-0.118088,-0.621765,0.741806,12.335541
2019-01-28 23:02:39:239,-0.019104,-0.213074,-0.118088,-1.042908,1.579285,12.599960
2019-01-28 23:02:39:239,-0.019104,-0.213074,-0.118088,-0.307114,2.013580,10.738342
2019-01-28 23:02:39:239,-0.019104,-0.213074,-0.118088,0.222900,1.931030,8.624283
2019-01-28 23:02:39:239,-0.019104,-0.213074,-0.118088,-0.453079,1.811401,8.460373
2019-01-28 23:02:39:239,-0.019104,-0.213074,-0.118088,-0.936417,2.236115,8.924576
2019-01-28 23:02:39:239,0.265747,-0.252167,-0.024200,-0.936417,2.236115,8.924576
2019-01-28 23:02:39:239,0.265747,-0.252167,-0.024200,-0.350189,2.109299,9.069336
2019-01-28 23:02:39:239,0.265747,-0.252167,-0.024200,-0.054672,1.897537,9.592178
2019-01-28 23:02:39:239,0.265747,-0.252167,-0.024200,1.225494,0.183075,9.775223
2019-01-28 23:02:39:239,0.265747,-0.252167,-0.024200,1.705261,-0.094498,10.612717
2019-01-28 23:02:39:239,0.265747,-0.252167,-0.024200,1.943344,0.686768,11.057770
2019-01-28 23:02:39:239,0.265747,-0.252167,-0.024200,1.290100,1.387863,11.114014
2019-01-28 23:02:39:239,0.265747,-0.252167,-0.024200,0.792389,1.811401,10.676117
2019-01-28 23:02:39:239,0.265747,-0.252167,-0.024200,0.734970,1.597229,10.301651
2019-01-28 23:02:39:239,0.265747,-0.252167,-0.024200,0.858200,0.796844,10.110214
2019-01-28 23:02:39:239,0.084686,-0.091400,0.002441,0.858200,0.796844,10.110214
2019-01-28 23:02:39:239,0.084686,-0.091400,0.002441,0.666763,0.731033,9.924774
2019-01-28 23:02:39:239,0.084686,-0.091400,0.002441,0.734970,1.129440,8.436447
2019-01-28 23:02:39:239,0.084686,-0.091400,0.002441,0.781631,1.611588,6.524582
2019-01-28 23:02:39:239,0.084686,-0.091400,0.002441,0.413132,1.763535,6.196762
2019-01-28 23:02:39:239,0.084686,-0.091400,0.002441,-0.116882,1.625946,7.461365
2019-01-28 23:02:39:239,0.084686,-0.091400,0.002441,-0.194656,1.581680,8.794174
2019-01-28 23:02:39:239,0.084686,-0.091400,0.002441,0.568665,1.228745,9.848206
2019-01-28 23:02:39:239,0.084686,-0.091400,0.002441,1.079544,0.849472,10.349503
2019-01-28 23:02:39:239,0.084686,-0.091400,0.002441,0.604568,1.180893,10.729965
2019-01-28 23:02:40:240,-0.119949,-0.065552,-0.167130,0.604568,1.180893,10.729965
2019-01-28 23:02:40:240,-0.119949,-0.065552,-0.167130,0.782822,1.019363,10.872345
2019-01-28 23:02:40:240,-0.119949,-0.065552,-0.167130,0.519608,1.596039,10.396164
2019-01-28 23:02:40:240,-0.119949,-0.065552,-0.167130,0.206146,1.416580,9.750107
2019-01-28 23:02:40:240,-0.119949,-0.065552,-0.167130,0.111633,1.347183,9.504837
2019-01-28 23:02:40:240,-0.119949,-0.065552,-0.167130,0.131973,0.876999,10.417694
2019-01-28 23:02:40:240,-0.119949,-0.065552,-0.167130,0.380829,0.665222,11.358078
2019-01-28 23:02:40:240,-0.119949,-0.065552,-0.167130,0.127197,0.701126,11.769638
2019-01-28 23:02:40:240,-0.119949,-0.065552,-0.167130,-0.103729,0.893753,12.166855
2019-01-28 23:02:40:240,-0.119949,-0.065552,-0.167130,-0.400436,1.207214,11.915604
2019-01-28 23:02:40:240,-0.119949,-0.065552,-0.167130,-0.630142,2.006409,10.466751
2019-01-28 23:02:40:240,0.064590,-0.011307,0.231689,-0.630142,2.006409,10.466751
2019-01-28 23:02:40:240,0.064590,-0.011307,0.231689,-0.399231,2.947983,8.157684
2019-01-28 23:02:40:240,0.064590,-0.011307,0.231689,0.184616,2.968323,6.592773
2019-01-28 23:02:40:240,0.064590,-0.011307,0.231689,1.062790,1.759949,7.461365
2019-01-28 23:02:40:240,0.064590,-0.011307,0.231689,1.065170,0.611389,10.306427
2019-01-28 23:02:40:240,0.064590,-0.011307,0.231689,1.266174,0.358948,12.016098
2019-01-28 23:02:40:240,0.064590,-0.011307,0.231689,1.169266,0.344589,11.920395
2019-01-28 23:02:40:240,0.064590,-0.011307,0.231689,0.764877,0.697540,11.592575
2019-01-28 23:02:40:240,0.064590,-0.011307,0.231689,0.335373,1.277802,10.783798
2019-01-28 23:02:40:240,0.064590,-0.011307,0.231689,0.316223,1.720459,9.077713
2019-01-28 23:02:40:240,0.194275,0.117569,0.322708,0.316223,1.720459,9.077713
2019-01-28 23:02:40:240,0.194275,0.117569,0.322708,0.255203,1.926254,7.173035
2019-01-28 23:02:40:240,0.194275,0.117569,0.322708,0.076935,1.896332,5.569839
2019-01-28 23:02:40:240,0.194275,0.117569,0.322708,0.203766,1.884369,5.072128
2019-01-28 23:02:40:240,0.194275,0.117569,0.322708,0.332977,1.880783,5.501648
2019-01-28 23:02:40:240,0.194275,0.117569,0.322708,0.919220,1.756363,7.092865
2019-01-28 23:02:40:240,0.194275,0.117569,0.322708,1.468369,0.658051,9.099258
2019-01-28 23:02:40:240,0.194275,0.117569,0.322708,1.461197,-0.427109,12.175217
2019-01-28 23:02:40:240,0.194275,0.117569,0.322708,1.637054,-0.620926,14.461578
2019-01-28 23:02:40:240,0.194275,0.117569,0.322708,1.812927,0.034714,13.744919
2019-01-28 23:02:40:240,0.194275,0.117569,0.322708,0.660782,1.378296,10.928558
2019-01-28 23:02:40:240,-0.004929,0.147934,0.165649,0.660782,1.378296,10.928558
2019-01-28 23:02:40:240,-0.004929,0.147934,0.165649,-1.155365,2.810394,8.249802
2019-01-28 23:02:40:240,-0.004929,0.147934,0.165649,-1.954575,3.555756,6.163254
2019-01-28 23:02:40:240,-0.004929,0.147934,0.165649,-1.598038,3.367920,5.416702
2019-01-28 23:02:40:240,-0.004929,0.147934,0.165649,-0.539215,2.449081,6.604736
2019-01-28 23:02:40:240,-0.004929,0.147934,0.165649,0.963486,0.876999,9.113602
2019-01-28 23:02:40:240,-0.004929,0.147934,0.165649,2.892105,-0.758499,12.416901
2019-01-28 23:02:40:240,-0.004929,0.147934,0.165649,3.024902,-0.923615,14.398163
2019-01-28 23:02:40:240,-0.004929,0.147934,0.165649,1.650223,0.539597,13.908829
2019-01-28 23:02:40:240,-0.004929,0.147934,0.165649,0.894089,1.600815,12.304443
2019-01-28 23:02:40:240,0.161041,0.169983,-0.110016,0.894089,1.600815,12.304443
2019-01-28 23:02:40:240,0.161041,0.169983,-0.110016,0.382019,1.910690,10.956085
2019-01-28 23:02:40:240,0.161041,0.169983,-0.110016,-0.140808,2.471817,9.592178
2019-01-28 23:02:40:240,0.161041,0.169983,-0.110016,0.030289,2.548386,7.249603
2019-01-28 23:02:40:240,0.161041,0.169983,-0.110016,0.137970,2.256454,5.492065
2019-01-28 23:02:40:240,0.161041,0.169983,-0.110016,-0.086975,2.153564,5.002747
2019-01-28 23:02:40:240,0.161041,0.169983,-0.110016,-0.207809,1.850876,5.606934
2019-01-28 23:02:40:240,0.161041,0.169983,-0.110016,0.171463,1.326843,7.320190
2019-01-28 23:02:40:240,0.161041,0.169983,-0.110016,0.611740,0.814789,9.716599
2019-01-28 23:02:40:240,0.161041,0.169983,-0.110016,1.255402,0.201019,12.426483
2019-01-28 23:02:40:240,0.161041,0.169983,-0.110016,1.528198,0.110092,14.136139
2019-01-28 23:02:40:240,-0.303879,0.085312,-0.105804,1.528198,0.110092,14.136139
2019-01-28 23:02:40:240,-0.303879,0.085312,-0.105804,0.711044,1.221558,13.396759
2019-01-28 23:02:40:240,-0.303879,0.085312,-0.105804,-0.057068,2.378494,11.183411
2019-01-28 23:02:40:240,-0.303879,0.085312,-0.105804,-0.366943,2.664429,9.362457
2019-01-28 23:02:40:240,-0.303879,0.085312,-0.105804,-0.608612,2.269623,8.517792
2019-01-28 23:02:40:240,-0.303879,0.085312,-0.105804,0.111633,1.161743,8.885101
2019-01-28 23:02:40:240,-0.303879,0.085312,-0.105804,0.862991,-0.029892,9.922379
2019-01-28 23:02:40:240,-0.303879,0.085312,-0.105804,0.562683,0.069412,10.594757
2019-01-28 23:02:41:241,-0.303879,0.085312,-0.105804,0.051819,1.170120,9.507233
2019-01-28 23:02:41:241,-0.303879,0.085312,-0.105804,0.068573,1.988464,7.835846
2019-01-28 23:02:41:241,-0.077194,-0.079666,-0.052292,0.068573,1.988464,7.835846
2019-01-28 23:02:41:241,-0.077194,-0.079666,-0.052292,0.189407,1.867630,7.683899
2019-01-28 23:02:41:241,-0.077194,-0.079666,-0.052292,-0.033142,1.347183,9.935547
2019-01-28 23:02:41:241,-0.077194,-0.079666,-0.052292,0.215729,1.142593,11.891678
2019-01-28 23:02:41:241,-0.077194,-0.079666,-0.052292,0.639252,1.435730,11.551895
2019-01-28 23:02:41:241,-0.077194,-0.079666,-0.052292,0.652420,1.881973,10.126968
2019-01-28 23:02:41:241,-0.077194,-0.079666,-0.052292,0.415527,1.885574,9.673538
2019-01-28 23:02:41:241,-0.077194,-0.079666,-0.052292,0.530380,1.357956,10.750305
2019-01-28 23:02:41:241,-0.077194,-0.079666,-0.052292,0.857010,0.971512,11.569839
2019-01-28 23:02:41:241,-0.077194,-0.079666,-0.052292,0.804352,1.128250,11.318588
2019-01-28 23:02:41:241,-0.077194,-0.079666,-0.052292,0.640442,1.369919,9.803940
2019-01-28 23:02:41:241,0.201294,-0.112900,-0.018570,0.640442,1.369919,9.803940
2019-01-28 23:02:41:241,0.201294,-0.112900,-0.018570,0.636871,1.214386,8.924576
2019-01-28 23:02:41:241,0.201294,-0.112900,-0.018570,0.398773,1.202423,9.145920
2019-01-28 23:02:41:241,0.201294,-0.112900,-0.018570,0.350922,1.415375,9.116013
2019-01-28 23:02:41:241,0.201294,-0.112900,-0.018570,0.419113,1.287369,8.527359
2019-01-28 23:02:41:241,0.201294,-0.112900,-0.018570,0.227692,1.178497,8.145721
2019-01-28 23:02:41:241,0.201294,-0.112900,-0.018570,-0.042709,1.410599,7.888489
2019-01-28 23:02:41:241,0.201294,-0.112900,-0.018570,0.265976,1.403427,7.984207
2019-01-28 23:02:41:241,0.201294,-0.112900,-0.018570,0.584213,1.275406,8.247406
2019-01-28 23:02:41:241,0.201294,-0.112900,-0.018570,0.104462,1.415375,8.869553
2019-01-28 23:02:41:241,-0.035477,-0.063538,0.000549,0.104462,1.415375,8.869553
2019-01-28 23:02:41:241,-0.035477,-0.063538,0.000549,-0.116882,1.573303,9.166245
2019-01-28 23:02:41:241,-0.035477,-0.063538,0.000549,0.078140,1.710892,8.862366
2019-01-28 23:02:41:241,-0.035477,-0.063538,0.000549,0.612930,1.636719,8.667358
2019-01-28 23:02:41:241,-0.035477,-0.063538,0.000549,0.603363,1.448883,9.576630
2019-01-28 23:02:41:241,-0.035477,-0.063538,0.000549,0.541153,0.912888,11.192978
2019-01-28 23:02:41:241,-0.035477,-0.063538,0.000549,0.792389,0.367325,11.928772
2019-01-28 23:02:41:241,-0.035477,-0.063538,0.000549,1.095078,0.297928,11.482498
2019-01-28 23:02:41:241,-0.035477,-0.063538,0.000549,0.533981,1.131836,10.454788
2019-01-28 23:02:41:241,-0.035477,-0.063538,0.000549,0.140350,1.917877,8.824081
2019-01-28 23:02:41:241,0.102341,0.025024,-0.014053,0.140350,1.917877,8.824081
2019-01-28 23:02:41:241,0.102341,0.025024,-0.014053,0.067368,2.061447,7.801147
2019-01-28 23:02:41:241,0.102341,0.025024,-0.014053,0.124802,2.238510,7.515198
2019-01-28 23:02:41:241,0.102341,0.025024,-0.014053,-0.051086,2.322266,7.089279
2019-01-28 23:02:41:241,0.102341,0.025024,-0.014053,0.055405,2.316284,7.165863
2019-01-28 23:02:41:241,0.102341,0.025024,-0.014053,0.240860,1.749176,8.959274
2019-01-28 23:02:41:241,0.102341,0.025024,-0.014053,1.322403,0.689163,12.068741
2019-01-28 23:02:41:241,0.102341,0.025024,-0.014053,1.901474,0.023956,13.438629
2019-01-28 23:02:41:241,0.102341,0.025024,-0.014053,0.856995,0.656860,10.366257
2019-01-28 23:02:41:241,0.102341,0.025024,-0.014053,0.242050,1.617584,8.521393
2019-01-28 23:02:41:241,0.102341,0.025024,-0.014053,-0.254471,1.923859,8.095459
2019-01-28 23:02:41:241,-0.139374,0.106934,-0.015945,-0.254471,1.923859,8.095459
2019-01-28 23:02:41:241,-0.139374,0.106934,-0.015945,-0.569122,2.169128,8.447205
2019-01-28 23:02:41:241,-0.139374,0.106934,-0.015945,0.370071,1.320862,9.942734
2019-01-28 23:02:41:241,-0.139374,0.106934,-0.015945,1.373856,0.673615,11.106827
2019-01-28 23:02:41:241,-0.139374,0.106934,-0.015945,1.337952,1.007401,10.503845
2019-01-28 23:02:41:241,-0.139374,0.106934,-0.015945,0.537567,1.488358,10.262161
2019-01-28 23:02:41:241,-0.139374,0.106934,-0.015945,-0.009201,1.450073,10.319595
2019-01-28 23:02:41:241,-0.139374,0.106934,-0.015945,0.254013,1.109100,10.794571
2019-01-28 23:02:41:241,-0.139374,0.106934,-0.015945,0.270767,0.836319,10.018097
2019-01-28 23:02:41:241,-0.139374,0.106934,-0.015945,0.208557,0.865036,9.052597
2019-01-28 23:02:42:242,-0.583771,0.209320,-0.135681,0.208557,0.865036,9.052597
2019-01-28 23:02:42:242,-0.583771,0.209320,-0.135681,0.264771,0.930832,8.377823
2019-01-28 23:02:42:242,-0.583771,0.209320,-0.135681,0.652420,0.409195,7.731750
2019-01-28 23:02:42:242,-0.583771,0.209320,-0.135681,0.518417,-0.087326,7.914810
2019-01-28 23:02:42:242,-0.583771,0.209320,-0.135681,0.324600,-0.159103,8.265350
2019-01-28 23:02:42:242,-0.583771,0.209320,-0.135681,0.115234,0.154358,8.441223
2019-01-28 23:02:42:242,-0.583771,0.209320,-0.135681,-0.224564,0.681976,9.194962
2019-01-28 23:02:42:242,-0.583771,0.209320,-0.135681,-0.534424,0.154373,9.745316
2019-01-28 23:02:42:242,-0.583771,0.209320,-0.135681,-0.276001,-0.087326,10.020493
2019-01-28 23:02:42:242,-0.583771,0.209320,-0.135681,-0.492554,0.057449,10.599548
2019-01-28 23:02:42:242,-0.583771,0.209320,-0.135681,-0.584686,-0.022705,11.989777
2019-01-28 23:02:42:242,-0.583771,0.209320,-0.135681,-0.444702,-0.305069,12.958878
2019-01-28 23:02:42:242,-0.583771,0.209320,-0.135681,-0.347794,-0.053818,12.452805
2019-01-28 23:02:42:242,-0.583771,0.209320,-0.135681,-0.828751,0.603012,12.258972
2019-01-28 23:02:42:242,-0.583771,0.209320,-0.135681,-0.575104,0.378098,11.387985
2019-01-28 23:02:42:242,-0.583771,0.209320,-0.135681,0.191803,-0.032288,10.476318
2019-01-28 23:02:42:242,-0.583771,0.209320,-0.135681,0.192993,-0.344559,10.058777
2019-01-28 23:02:42:242,-0.583771,0.209320,-0.135681,-0.150375,-0.159103,9.503632
2019-01-28 23:02:42:242,-0.583771,0.209320,-0.135681,-0.054672,0.720261,7.759277
2019-01-28 23:02:42:242,-0.583771,0.209320,-0.135681,-0.151581,1.117477,6.620285
2019-01-28 23:02:42:242,0.115768,-0.152786,0.061996,-0.151581,1.117477,6.620285
2019-01-28 23:02:42:242,0.115768,-0.152786,0.061996,-0.024765,0.494141,7.437439
2019-01-28 23:02:42:242,0.115768,-0.152786,0.061996,0.026703,-0.135178,9.180603
2019-01-28 23:02:42:242,0.115768,-0.152786,0.061996,-0.031937,-0.131592,10.796967
2019-01-28 23:02:42:242,0.115768,-0.152786,0.061996,0.088898,0.034729,10.898651
2019-01-28 23:02:42:242,0.115768,-0.152786,0.061996,0.135559,-0.125610,10.682098
2019-01-28 23:02:42:242,0.115768,-0.152786,0.061996,0.354507,-1.003769,11.517197
2019-01-28 23:02:42:242,0.115768,-0.152786,0.061996,0.192993,-0.763290,12.249405
2019-01-28 23:02:42:242,0.115768,-0.152786,0.061996,0.048233,0.114883,11.073334
2019-01-28 23:02:42:242,0.115768,-0.152786,0.061996,-0.100128,0.591049,9.248795
2019-01-28 23:02:42:242,0.115768,-0.152786,0.061996,-0.700729,1.128235,8.253387
2019-01-28 23:02:42:242,0.031540,-0.048691,0.040558,-0.700729,1.128235,8.253387
2019-01-28 23:02:42:242,0.031540,-0.048691,0.040558,-0.273605,1.142593,7.714996
2019-01-28 23:02:42:242,0.031540,-0.048691,0.040558,0.664383,0.538406,8.172028
2019-01-28 23:02:42:242,0.031540,-0.048691,0.040558,0.901276,-0.102875,9.732147
2019-01-28 23:02:42:242,0.031540,-0.048691,0.040558,0.927582,-0.630493,11.480118
2019-01-28 23:02:42:242,0.031540,-0.048691,0.040558,1.202774,-0.898483,12.126175
2019-01-28 23:02:42:242,0.031540,-0.048691,0.040558,0.736176,-0.378036,11.475327
2019-01-28 23:02:42:242,0.031540,-0.048691,0.040558,0.116425,0.428345,9.930756
2019-01-28 23:02:42:242,0.031540,-0.048691,0.040558,-0.252075,0.887772,8.034454
2019-01-28 23:02:42:242,0.031540,-0.048691,0.040558,-0.296341,0.467819,7.229263
2019-01-28 23:02:42:242,0.105453,-0.060120,0.068466,-0.296341,0.467819,7.229263
2019-01-28 23:02:42:242,0.105453,-0.060120,0.068466,-0.174316,-0.261993,8.321594
2019-01-28 23:02:42:242,0.105453,-0.060120,0.068466,-0.125259,-0.541946,9.125580
2019-01-28 23:02:42:242,0.105453,-0.060120,0.068466,0.155914,-0.312241,9.086090
2019-01-28 23:02:42:242,0.105453,-0.060120,0.068466,0.395187,-0.032288,9.133957
2019-01-28 23:02:42:242,0.105453,-0.060120,0.068466,0.543533,-0.009552,8.809723
2019-01-28 23:02:42:242,0.105453,-0.060120,0.068466,0.079330,0.137619,8.766647
2019-01-28 23:02:42:242,0.105453,-0.060120,0.068466,-0.338226,0.626953,9.726181
2019-01-28 23:02:42:242,0.105453,-0.060120,0.068466,-0.185074,0.667633,10.511017
2019-01-28 23:02:42:242,0.105453,-0.060120,0.068466,-0.149185,0.794449,11.212112
2019-01-28 23:02:43:243,-0.134308,0.043655,0.024429,-0.149185,0.794449,11.212112
2019-01-28 23:02:43:243,-0.134308,0.043655,0.024429,-0.138428,1.005005,11.374832
2019-01-28 23:02:43:243,-0.134308,0.043655,0.024429,0.694290,0.768127,11.069733
2019-01-28 23:02:43:243,-0.134308,0.043655,0.024429,1.199173,0.089752,11.249207
2019-01-28 23:02:43:243,-0.134308,0.043655,0.024429,1.212341,-0.636475,12.170441
2019-01-28 23:02:43:243,-0.134308,0.043655,0.024429,1.006546,-0.669968,12.621490
2019-01-28 23:02:43:243,-0.134308,0.043655,0.024429,0.695496,-0.338562,11.884506
2019-01-28 23:02:43:243,-0.134308,0.043655,0.024429,0.047028,0.067017,10.812515
2019-01-28 23:02:43:243,-0.134308,0.043655,0.024429,-0.290359,0.537216,9.650803
2019-01-28 23:02:43:243,-0.134308,0.043655,0.024429,-0.474609,1.066025,8.255783
2019-01-28 23:02:43:243,-0.134308,0.043655,0.024429,-0.935226,1.612793,7.210114
2019-01-28 23:02:43:243,0.316925,0.099121,-0.085648,-0.935226,1.612793,7.210114
2019-01-28 23:02:43:243,0.316925,0.099121,-0.085648,-0.645691,1.708496,6.689682
2019-01-28 23:02:43:243,0.316925,0.099121,-0.085648,0.169067,1.165329,7.005539
2019-01-28 23:02:43:243,0.316925,0.099121,-0.085648,0.051819,0.538406,8.581207
2019-01-28 23:02:43:243,0.316925,0.099121,-0.085648,-0.177902,0.469025,10.488281
2019-01-28 23:02:43:243,0.316925,0.099121,-0.085648,0.408340,0.204605,11.352097
2019-01-28 23:02:43:243,0.316925,0.099121,-0.085648,0.682327,-0.088516,11.645218
2019-01-28 23:02:43:243,0.316925,0.099121,-0.085648,0.310242,0.128036,11.516006
2019-01-28 23:02:43:243,0.316925,0.099121,-0.085648,-0.094147,0.746582,10.465561
2019-01-28 23:02:43:243,0.316925,0.099121,-0.085648,-0.225754,1.153366,9.129166
2019-01-28 23:02:43:243,0.091644,-0.070511,-0.017471,-0.225754,1.153366,9.129166
2019-01-28 23:02:43:243,0.091644,-0.070511,-0.017471,-0.289169,1.619965,7.942322
2019-01-28 23:02:43:243,0.091644,-0.070511,-0.017471,-0.210205,1.545792,7.146713
2019-01-28 23:02:43:243,0.091644,-0.070511,-0.017471,0.038651,1.270615,7.204132
2019-01-28 23:02:43:243,0.091644,-0.070511,-0.017471,0.110443,1.103119,8.105042
2019-01-28 23:02:43:243,0.091644,-0.070511,-0.017471,0.401169,0.709503,9.376816
2019-01-28 23:02:43:243,0.091644,-0.070511,-0.017471,0.660797,0.126846,10.764664
2019-01-28 23:02:43:243,0.091644,-0.070511,-0.017471,0.146332,0.153168,11.890488
2019-01-28 23:02:43:243,0.091644,-0.070511,-0.017471,-0.082184,0.547989,12.135742
2019-01-28 23:02:43:243,0.091644,-0.070511,-0.017471,-0.115692,0.835129,11.073334
2019-01-28 23:02:43:243,0.091644,-0.070511,-0.017471,-0.272415,1.320862,9.695068
2019-01-28 23:02:43:243,-0.060699,-0.076981,0.091187,-0.272415,1.320862,9.695068
2019-01-28 23:02:43:243,-0.060699,-0.076981,0.091187,-0.371719,1.834122,8.199554
2019-01-28 23:02:43:243,-0.060699,-0.076981,0.091187,-0.110901,1.990860,7.218491
2019-01-28 23:02:43:243,-0.060699,-0.076981,0.091187,0.050629,1.750381,7.700653
2019-01-28 23:02:43:243,-0.060699,-0.076981,0.091187,0.450226,0.660446,9.686691
2019-01-28 23:02:43:243,-0.060699,-0.076981,0.091187,0.884521,-0.269180,12.166855
2019-01-28 23:02:43:243,-0.060699,-0.076981,0.091187,1.129791,-0.194992,13.115601
2019-01-28 23:02:43:243,-0.060699,-0.076981,0.091187,0.891693,0.425949,11.410721
2019-01-28 23:02:43:243,-0.060699,-0.076981,0.091187,0.094894,1.095947,9.488083
2019-01-28 23:02:43:243,-0.060699,-0.076981,0.091187,-0.497345,1.562546,8.384995
2019-01-28 23:02:43:243,-0.038101,0.043533,0.017410,-0.497345,1.562546,8.384995
2019-01-28 23:02:43:243,-0.038101,0.043533,0.017410,-0.547592,1.783875,7.551102
2019-01-28 23:02:43:243,-0.038101,0.043533,0.017410,-0.283188,1.582886,7.430252
2019-01-28 23:02:43:243,-0.038101,0.043533,0.017410,0.240845,0.685577,8.717590
2019-01-28 23:02:43:243,-0.038101,0.043533,0.017410,0.513641,-0.443848,10.574432
2019-01-28 23:02:43:243,-0.038101,0.043533,0.017410,0.154709,-0.356506,11.470535
2019-01-28 23:02:43:243,-0.038101,0.043533,0.017410,-0.143204,0.666428,10.056381
2019-01-28 23:02:43:243,-0.038101,0.043533,0.017410,-0.052277,1.518265,7.592972
2019-01-28 23:02:43:243,-0.038101,0.043533,0.017410,0.104462,1.994446,6.071136
2019-01-28 23:02:43:243,-0.038101,0.043533,0.017410,-0.358551,1.616379,7.223282
2019-01-28 23:02:43:243,-0.038101,0.043533,0.017410,-0.341812,0.698730,10.232254
2019-01-28 23:02:43:243,-0.054657,-0.041733,0.052704,-0.341812,0.698730,10.232254
2019-01-28 23:02:43:243,-0.054657,-0.041733,0.052704,0.620117,-0.278748,12.680115
2019-01-28 23:02:43:243,-0.054657,-0.041733,0.052704,1.262589,-0.954712,13.504440
2019-01-28 23:02:43:243,-0.054657,-0.041733,0.052704,0.773254,-0.326599,12.420486
2019-01-28 23:02:43:243,-0.054657,-0.041733,0.052704,-0.083389,1.002625,10.472733
2019-01-28 23:02:43:243,-0.054657,-0.041733,0.052704,-0.255676,2.026749,8.642227
2019-01-28 23:02:43:243,-0.054657,-0.041733,0.052704,-0.120468,2.171509,7.711411
2019-01-28 23:02:43:243,-0.054657,-0.041733,0.052704,0.280334,1.072006,8.748703
2019-01-28 23:02:43:243,-0.054657,-0.041733,0.052704,0.635666,0.075394,10.643814
2019-01-28 23:02:43:243,-0.054657,-0.041733,0.052704,0.989807,-0.154327,11.395172
2019-01-28 23:02:44:244,0.090363,0.109146,-0.007462,0.989807,-0.154327,11.395172
2019-01-28 23:02:44:244,0.090363,0.109146,-0.007462,1.035263,-0.149536,10.357880
2019-01-28 23:02:44:244,0.090363,0.109146,-0.007462,0.318619,0.355362,9.094467
2019-01-28 23:02:44:244,0.090363,0.109146,-0.007462,-0.717484,1.255066,8.015305
2019-01-28 23:02:44:244,0.090363,0.109146,-0.007462,-0.651688,1.410599,7.186188
2019-01-28 23:02:44:244,0.090363,0.109146,-0.007462,0.012344,1.237106,7.106033
2019-01-28 23:02:44:244,0.090363,0.109146,-0.007462,0.073349,0.844696,8.438843
2019-01-28 23:02:44:244,0.090363,0.109146,-0.007462,0.191803,0.229736,10.106628
2019-01-28 23:02:44:244,0.090363,0.109146,-0.007462,0.757690,-0.072968,11.390381
2019-01-28 23:02:44:244,0.090363,0.109146,-0.007462,1.036469,-0.269165,11.806732
2019-01-28 23:02:44:244,-0.117813,0.117630,-0.045074,1.036469,-0.269165,11.806732
2019-01-28 23:02:44:244,-0.117813,0.117630,-0.045074,0.609344,-0.320618,11.722977
2019-01-28 23:02:44:244,-0.117813,0.117630,-0.045074,-0.035522,0.288361,10.985992
2019-01-28 23:02:44:244,-0.117813,0.117630,-0.045074,-0.110901,0.771713,9.787186
2019-01-28 23:02:44:244,-0.117813,0.117630,-0.045074,0.098480,0.591049,8.904236
2019-01-28 23:02:44:244,-0.117813,0.117630,-0.045074,-0.132446,0.332626,8.991577
2019-01-28 23:02:44:244,-0.117813,0.117630,-0.045074,-0.158768,0.341003,9.186584
2019-01-28 23:02:44:244,-0.117813,0.117630,-0.045074,-0.006821,0.390060,9.299057
2019-01-28 23:02:44:244,-0.117813,0.117630,-0.045074,-0.082184,0.309891,9.454590
2019-01-28 23:02:44:244,-0.117813,0.117630,-0.045074,-0.138412,0.063431,10.004944
2019-01-28 23:02:44:244,-0.117813,0.117630,-0.045074,-0.120468,-0.294296,10.700058
2019-01-28 23:02:44:244,-0.147018,0.223984,-0.168961,-0.120468,-0.294296,10.700058
2019-01-28 23:02:44:244,-0.147018,0.223984,-0.168961,-0.046295,-0.364883,10.706024
2019-01-28 23:02:44:244,-0.147018,0.223984,-0.168961,-0.060654,-0.405563,10.320786
2019-01-28 23:02:44:244,-0.147018,0.223984,-0.168961,-0.033127,-1.018127,10.258575
2019-01-28 23:02:44:244,-0.147018,0.223984,-0.168961,-0.542801,-1.013351,10.767059
2019-01-28 23:02:44:244,-0.147018,0.223984,-0.168961,-1.219971,-0.023911,10.219101
2019-01-28 23:02:44:244,-0.147018,0.223984,-0.168961,-1.112305,0.405609,9.333755
2019-01-28 23:02:44:244,-0.147018,0.223984,-0.168961,-0.618179,0.357758,8.714005
2019-01-28 23:02:44:244,-0.147018,0.223984,-0.168961,-0.299942,0.002411,8.404144
2019-01-28 23:02:44:244,-0.147018,0.223984,-0.168961,0.158295,-0.671173,8.717590
2019-01-28 23:02:44:244,-0.015060,-0.088348,0.001099,0.158295,-0.671173,8.717590
2019-01-28 23:02:44:244,-0.015060,-0.088348,0.001099,0.712234,-1.220322,9.159073
2019-01-28 23:02:44:244,-0.015060,-0.088348,0.001099,0.837860,-1.284927,9.509613
2019-01-28 23:02:44:244,-0.015060,-0.088348,0.001099,0.403564,-0.831482,10.213104
2019-01-28 23:02:44:244,-0.015060,-0.088348,0.001099,0.023102,-0.410355,10.588791
2019-01-28 23:02:44:244,-0.015060,-0.088348,0.001099,-0.301132,-0.156708,10.702454
2019-01-28 23:02:44:244,-0.015060,-0.088348,0.001099,-0.762939,0.218979,10.682098
2019-01-28 23:02:44:244,-0.015060,-0.088348,0.001099,-0.898132,0.681976,10.036041
2019-01-28 23:02:44:244,-0.015060,-0.088348,0.001099,-0.597839,0.811188,9.319397
2019-01-28 23:02:44:244,-0.015060,-0.088348,0.001099,0.163086,0.053864,9.252396
2019-01-28 23:02:44:244,-0.015060,-0.088348,0.001099,1.130981,-1.185623,9.454590
2019-01-28 23:02:44:244,0.007660,-0.097443,-0.086929,1.130981,-1.185623,9.454590
2019-01-28 23:02:44:244,0.007660,-0.097443,-0.086929,0.476547,-1.196396,9.949905
2019-01-28 23:02:44:244,0.007660,-0.097443,-0.086929,-0.144394,-0.367279,9.811111
2019-01-28 23:02:44:244,0.007660,-0.097443,-0.086929,-0.177902,-0.082535,9.461761
2019-01-28 23:02:44:244,0.007660,-0.097443,-0.086929,-0.430344,0.035919,9.436630
2019-01-28 23:02:44:244,0.007660,-0.097443,-0.086929,-0.798843,0.184280,9.746506
2019-01-28 23:02:44:244,0.007660,-0.097443,-0.086929,-0.526062,0.155563,9.970245
2019-01-28 23:02:44:244,0.007660,-0.097443,-0.086929,-0.200638,0.055069,10.012115
2019-01-28 23:02:44:244,0.007660,-0.097443,-0.086929,0.185822,-0.307465,10.109024
2019-01-28 23:02:44:244,0.007660,-0.097443,-0.086929,0.322205,-0.710648,10.616302
2019-01-28 23:02:45:245,-0.036148,-0.021454,0.011841,0.322205,-0.710648,10.616302
2019-01-28 23:02:45:245,-0.036148,-0.021454,0.011841,0.099670,-0.434280,10.806534
2019-01-28 23:02:45:245,-0.036148,-0.021454,0.011841,-0.168320,0.235718,10.170044
2019-01-28 23:02:45:245,-0.036148,-0.021454,0.011841,-0.171921,0.543198,9.389984
2019-01-28 23:02:45:245,-0.036148,-0.021454,0.011841,0.032684,0.006012,9.090881
2019-01-28 23:02:45:245,-0.036148,-0.021454,0.011841,0.361694,-0.766876,9.710617
2019-01-28 23:02:45:245,-0.036148,-0.021454,0.011841,0.486115,-1.061203,10.460770
2019-01-28 23:02:45:245,-0.036148,-0.021454,0.011841,0.106857,-0.650833,10.576828
2019-01-28 23:02:45:245,-0.036148,-0.021454,0.011841,-0.386078,-0.093307,9.896057
2019-01-28 23:02:45:245,-0.036148,-0.021454,0.011841,-0.372925,-0.163879,9.071732
2019-01-28 23:02:45:245,-0.036148,-0.021454,0.011841,-0.021164,-0.552719,8.978409
2019-01-28 23:02:45:245,-0.196182,-0.032333,0.071579,-0.021164,-0.552719,8.978409
2019-01-28 23:02:45:245,-0.196182,-0.032333,0.071579,-0.179092,-0.063385,9.293076
2019-01-28 23:02:45:245,-0.196182,-0.032333,0.071579,0.025497,0.256058,9.172226
2019-01-28 23:02:45:245,-0.196182,-0.032333,0.071579,0.697876,-0.196198,9.142319
2019-01-28 23:02:45:245,-0.196182,-0.032333,0.071579,0.100876,-0.183029,9.574234
2019-01-28 23:02:45:245,-0.196182,-0.032333,0.071579,-0.453079,0.491760,9.451004
2019-01-28 23:02:45:245,-0.196182,-0.032333,0.071579,-0.072617,0.836319,9.294266
2019-01-28 23:02:45:245,-0.196182,-0.032333,0.071579,0.362885,-0.052628,9.556290
2019-01-28 23:02:45:245,-0.196182,-0.032333,0.071579,0.459793,-1.025299,11.819901
2019-01-28 23:02:45:245,-0.196182,-0.032333,0.071579,0.628494,-0.973862,14.173233
2019-01-28 23:02:45:245,-0.196182,-0.032333,0.071579,0.696686,-0.233276,13.887299
2019-01-28 23:02:45:245,-0.196182,-0.032333,0.071579,0.047028,0.482178,11.812714
2019-01-28 23:02:45:245,-0.196182,-0.032333,0.071579,-0.133636,0.418777,9.909225
2019-01-28 23:02:45:245,-0.196182,-0.032333,0.071579,-0.030746,0.258453,8.454391
2019-01-28 23:02:45:245,-0.196182,-0.032333,0.071579,-0.270020,0.844696,6.869141
2019-01-28 23:02:45:245,-0.196182,-0.032333,0.071579,0.005157,1.123459,5.008713
2019-01-28 23:02:45:245,-0.196182,-0.032333,0.071579,0.896484,0.555161,4.804138
2019-01-28 23:02:45:245,-0.196182,-0.032333,0.071579,0.923996,0.214188,6.538940
2019-01-28 23:02:45:245,-0.196182,-0.032333,0.071579,0.347336,0.437912,9.270340
2019-01-28 23:02:45:245,0.365005,-0.119186,0.058090,0.347336,0.437912,9.270340
2019-01-28 23:02:45:245,0.365005,-0.119186,0.058090,0.361694,0.500122,11.705032
2019-01-28 23:02:45:245,0.365005,-0.119186,0.058090,0.487305,0.379288,13.310623
2019-01-28 23:02:45:245,0.365005,-0.119186,0.058090,0.380829,0.344589,13.791580
2019-01-28 23:02:45:245,0.365005,-0.119186,0.058090,-0.071426,0.678391,12.839233
2019-01-28 23:02:45:245,0.365005,-0.119186,0.058090,-0.402832,1.075592,10.999161
2019-01-28 23:02:45:245,0.365005,-0.119186,0.058090,-0.521271,1.389053,9.048996
2019-01-28 23:02:45:245,0.365005,-0.119186,0.058090,-0.219772,1.015778,7.533157
2019-01-28 23:02:45:245,0.365005,-0.119186,0.058090,-0.088165,0.457047,7.748505
2019-01-28 23:02:45:245,0.365005,-0.119186,0.058090,0.312637,-0.080139,8.743927
2019-01-28 23:02:45:245,0.365005,-0.119186,0.058090,0.846237,-0.538361,9.744125
2019-01-28 23:02:45:245,0.069962,-0.165375,-0.059067,0.846237,-0.538361,9.744125
2019-01-28 23:02:45:245,0.069962,-0.165375,-0.059067,0.950317,-0.184219,10.723984
2019-01-28 23:02:45:245,0.069962,-0.165375,-0.059067,0.629684,0.617371,10.493073
2019-01-28 23:02:45:245,0.069962,-0.165375,-0.059067,0.322205,1.165329,10.050400
2019-01-28 23:02:45:245,0.069962,-0.165375,-0.059067,0.171463,1.345993,9.912811
2019-01-28 23:02:45:245,0.069962,-0.165375,-0.059067,0.110443,1.427353,9.784805
2019-01-28 23:02:45:245,0.069962,-0.165375,-0.059067,0.098480,1.471603,9.589783
2019-01-28 23:02:45:245,0.069962,-0.165375,-0.059067,0.281525,1.261047,9.549103
2019-01-28 23:02:45:245,0.069962,-0.165375,-0.059067,0.676346,0.648483,9.935547
2019-01-28 23:02:45:245,0.069962,-0.165375,-0.059067,0.707443,0.519272,10.210724
2019-01-28 23:02:45:245,0.049988,-0.071228,0.036209,0.707443,0.519272,10.210724
2019-01-28 23:02:45:245,0.049988,-0.071228,0.036209,0.683517,0.850677,9.730957
2019-01-28 23:02:45:245,0.049988,-0.071228,0.036209,1.086716,0.623352,9.538330
2019-01-28 23:02:45:245,0.049988,-0.071228,0.036209,1.651413,-0.224899,10.595963
2019-01-28 23:02:45:245,0.049988,-0.071228,0.036209,1.254211,-0.625702,11.511215
2019-01-28 23:02:45:245,0.049988,-0.071228,0.036209,0.691895,-0.222519,10.872330
2019-01-28 23:02:45:245,0.049988,-0.071228,0.036209,0.050613,0.667618,9.129166
2019-01-28 23:02:45:245,0.049988,-0.071228,0.036209,-0.337021,1.581680,6.900253
2019-01-28 23:02:45:245,0.049988,-0.071228,0.036209,-0.692352,2.183472,5.176224
2019-01-28 23:02:45:245,0.049988,-0.071228,0.036209,-0.600235,2.202621,4.702438
2019-01-28 23:02:45:245,0.049988,-0.071228,0.036209,-0.262848,1.925049,5.562653
2019-01-28 23:02:46:246,0.212112,0.132355,-0.121811,-0.262848,1.925049,5.562653
2019-01-28 23:02:46:246,0.212112,0.132355,-0.121811,0.507645,1.319672,6.989975
2019-01-28 23:02:46:246,0.212112,0.132355,-0.121811,1.284119,0.002411,8.997559
2019-01-28 23:02:46:246,0.212112,0.132355,-0.121811,1.101074,-1.311249,11.866547
2019-01-28 23:02:46:246,0.212112,0.132355,-0.121811,0.273163,-1.178452,13.979416
2019-01-28 23:02:46:246,0.212112,0.132355,-0.121811,-0.285568,-0.020325,13.463760
2019-01-28 23:02:46:246,0.212112,0.132355,-0.121811,-0.644501,0.926056,11.998154
2019-01-28 23:02:46:246,0.212112,0.132355,-0.121811,-0.538025,1.787460,10.668945
2019-01-28 23:02:46:246,0.212112,0.132355,-0.121811,-0.371719,2.048279,9.442627
2019-01-28 23:02:46:246,0.212112,0.132355,-0.121811,-0.104919,1.781479,8.786987
2019-01-28 23:02:46:246,-0.212799,-0.085831,0.055389,-0.104919,1.781479,8.786987
2019-01-28 23:02:46:246,-0.212799,-0.085831,0.055389,0.417923,0.885376,8.918594
2019-01-28 23:02:46:246,-0.212799,-0.085831,0.055389,1.383423,-0.278748,9.565857
2019-01-28 23:02:46:246,-0.212799,-0.085831,0.055389,1.794998,-1.296890,11.171448
2019-01-28 23:02:46:246,-0.212799,-0.085831,0.055389,1.162094,-1.191605,11.983795
2019-01-28 23:02:46:246,-0.212799,-0.085831,0.055389,0.164276,-0.081345,11.274323
2019-01-28 23:02:46:246,-0.212799,-0.085831,0.055389,-0.577499,1.265839,9.855377
2019-01-28 23:02:46:246,-0.212799,-0.085831,0.055389,-1.068024,2.431137,8.304825
2019-01-28 23:02:46:246,-0.212799,-0.085831,0.055389,-1.280991,2.993454,7.177811
2019-01-28 23:02:46:246,-0.212799,-0.085831,0.055389,-0.717484,2.397644,7.086884
2019-01-28 23:02:46:246,-0.212799,-0.085831,0.055389,0.366470,0.782486,9.014313
2019-01-28 23:02:46:246,-0.069199,-0.070023,0.103775,0.366470,0.782486,9.014313
2019-01-28 23:02:46:246,-0.069199,-0.070023,0.103775,1.208740,-1.036072,11.779221
2019-01-28 23:02:46:246,-0.069199,-0.070023,0.103775,1.345139,-1.832886,13.117996
2019-01-28 23:02:46:246,-0.069199,-0.070023,0.103775,0.768478,-1.073166,12.174026
2019-01-28 23:02:46:246,-0.069199,-0.070023,0.103775,0.021912,0.507309,10.147308
2019-01-28 23:02:46:246,-0.069199,-0.070023,0.103775,-0.267639,1.742004,8.428070
2019-01-28 23:02:46:246,-0.069199,-0.070023,0.103775,-0.338211,1.745590,7.921982
2019-01-28 23:02:46:246,-0.069199,-0.070023,0.103775,-0.406418,0.987061,9.355286
2019-01-28 23:02:46:246,-0.069199,-0.070023,0.103775,0.006363,0.288361,10.635437
2019-01-28 23:02:46:246,-0.069199,-0.070023,0.103775,0.645233,-0.320618,11.322189
2019-01-28 23:02:46:246,0.077164,0.081589,0.069992,0.645233,-0.320618,11.322189
2019-01-28 23:02:46:246,0.077164,0.081589,0.069992,0.395187,-0.575455,10.862762
2019-01-28 23:02:46:246,0.077164,0.081589,0.069992,0.091309,0.217773,9.053787
2019-01-28 23:02:46:246,0.077164,0.081589,0.069992,1.416916,2.438309,7.840637
2019-01-28 23:02:46:246,0.077164,0.081589,0.069992,-0.878998,0.215378,8.014099
2019-01-28 23:02:46:246,0.077164,0.081589,0.069992,-0.643295,1.793442,8.788177
2019-01-28 23:02:46:246,0.077164,0.081589,0.069992,0.136765,2.225357,9.711823
2019-01-28 23:02:46:246,0.077164,0.081589,0.069992,-0.546402,0.309891,9.812317
2019-01-28 23:02:46:246,0.077164,0.081589,0.069992,0.227692,0.222565,9.650803
2019-01-28 23:02:46:246,0.077164,0.081589,0.069992,1.387009,-0.257217,10.226273
2019-01-28 23:02:46:246,-0.088257,0.115189,-0.047287,1.387009,-0.257217,10.226273
2019-01-28 23:02:46:246,-0.088257,0.115189,-0.047287,1.491104,-0.482132,11.222885
2019-01-28 23:02:46:246,-0.088257,0.115189,-0.047287,0.307846,-0.581436,10.786194
2019-01-28 23:02:46:246,-0.088257,0.115189,-0.047287,0.743347,0.911697,9.794373
2019-01-28 23:02:46:246,-0.088257,0.115189,-0.047287,1.201569,1.314880,8.880310
2019-01-28 23:02:46:246,-0.088257,0.115189,-0.047287,0.474152,0.981079,8.706833
2019-01-28 23:02:46:246,-0.088257,0.115189,-0.047287,-1.614792,-0.263199,9.332550
2019-01-28 23:02:46:246,-0.088257,0.115189,-0.047287,-2.434326,-0.458206,10.222687
2019-01-28 23:02:46:246,-0.088257,0.115189,-0.047287,-0.557159,0.751373,9.995361
2019-01-28 23:02:46:246,-0.088257,0.115189,-0.047287,-0.955566,0.683182,9.857788
2019-01-28 23:02:46:246,-0.088257,0.115189,-0.047287,-0.662445,0.586273,9.906830
2019-01-28 23:02:47:247,0.023468,-0.029266,0.129486,-0.662445,0.586273,9.906830
2019-01-28 23:02:47:247,0.023468,-0.029266,0.129486,-0.591858,0.630539,10.196365
2019-01-28 23:02:47:247,0.023468,-0.029266,0.129486,-0.612198,0.910492,11.055389
2019-01-28 23:02:47:247,0.023468,-0.029266,0.129486,-0.254471,0.934418,10.448807
2019-01-28 23:02:47:247,0.023468,-0.029266,0.129486,0.234863,0.513290,9.754883
2019-01-28 23:02:47:247,0.023468,-0.029266,0.129486,0.620117,0.195038,10.199951
2019-01-28 23:02:47:247,0.023468,-0.029266,0.129486,0.792404,-0.253616,10.509827
2019-01-28 23:02:47:247,0.023468,-0.029266,0.129486,0.750519,-0.564682,10.658173
2019-01-28 23:02:47:247,0.023468,-0.029266,0.129486,0.653610,-0.474960,10.995560
2019-01-28 23:02:47:247,0.023468,-0.029266,0.129486,0.291092,0.144791,10.804138
2019-01-28 23:02:47:247,0.080963,0.172180,0.130646,0.291092,0.144791,10.804138
2019-01-28 23:02:47:247,0.080963,0.172180,0.130646,-0.584686,1.326843,9.288284
2019-01-28 23:02:47:247,0.080963,0.172180,0.130646,-1.273819,2.356964,7.876526
2019-01-28 23:02:47:247,0.080963,0.172180,0.130646,-0.974701,2.025558,7.584595
2019-01-28 23:02:47:247,0.080963,0.172180,0.130646,-0.177902,0.955963,8.916199
2019-01-28 23:02:47:247,0.080963,0.172180,0.130646,0.482529,0.276398,10.751495
2019-01-28 23:02:47:247,0.080963,0.172180,0.130646,0.715820,-0.004761,11.453796
2019-01-28 23:02:47:247,0.080963,0.172180,0.130646,0.212143,-0.090912,10.630661
2019-01-28 23:02:47:247,0.080963,0.172180,0.130646,-0.344193,0.343399,9.799149
2019-01-28 23:02:47:247,0.080963,0.172180,0.130646,-0.517685,1.185669,9.002350
2019-01-28 23:02:47:247,0.080963,0.172180,0.130646,-0.688766,1.479980,7.962662
2019-01-28 23:02:47:247,0.205750,0.046158,-0.128036,-0.688766,1.479980,7.962662
2019-01-28 23:02:47:247,0.205750,0.046158,-0.128036,-0.743805,1.219162,7.441025
2019-01-28 23:02:47:247,0.205750,0.046158,-0.128036,-0.579895,0.567123,8.201950
2019-01-28 23:02:47:247,0.205750,0.046158,-0.128036,0.133179,-0.034683,10.071930
2019-01-28 23:02:47:247,0.205750,0.046158,-0.128036,-0.008011,-0.002365,10.372238
2019-01-28 23:02:47:247,0.205750,0.046158,-0.128036,-0.473419,0.423553,10.062363
2019-01-28 23:02:47:247,0.205750,0.046158,-0.128036,-0.674408,1.280182,10.080307
2019-01-28 23:02:47:247,0.205750,0.046158,-0.128036,-0.712692,1.892746,10.128159
2019-01-28 23:02:47:247,0.205750,0.046158,-0.128036,-0.530838,2.026749,10.274124
2019-01-28 23:02:47:247,0.205750,0.046158,-0.128036,-0.274811,1.558945,10.617493
2019-01-28 23:02:47:247,0.437744,-0.120407,0.040375,-0.274811,1.558945,10.617493
2019-01-28 23:02:47:247,0.437744,-0.120407,0.040375,-0.072617,1.239517,10.834045
2019-01-28 23:02:47:247,0.437744,-0.120407,0.040375,0.201370,1.234726,10.549301
2019-01-28 23:02:47:247,0.437744,-0.120407,0.040375,0.409546,1.119873,10.116211
2019-01-28 23:02:47:247,0.437744,-0.120407,0.040375,0.163086,1.048080,9.479721
2019-01-28 23:02:47:247,0.437744,-0.120407,0.040375,-0.149185,1.129440,8.786987
2019-01-28 23:02:47:247,0.437744,-0.120407,0.040375,-0.283188,0.999039,8.280899
2019-01-28 23:02:47:247,0.437744,-0.120407,0.040375,0.256393,0.637711,8.666153
2019-01-28 23:02:47:247,0.437744,-0.120407,0.040375,-0.116882,0.888962,9.228470
2019-01-28 23:02:47:247,0.437744,-0.120407,0.040375,-0.540421,1.441696,9.890076
2019-01-28 23:02:47:247,0.437744,-0.120407,0.040375,-0.204224,1.836517,10.225082
2019-01-28 23:02:47:247,-0.122589,-0.114670,0.028336,-0.204224,1.836517,10.225082
2019-01-28 23:02:47:247,-0.122589,-0.114670,0.028336,-0.142014,2.037521,10.154495
2019-01-28 23:02:47:247,-0.122589,-0.114670,0.028336,-0.267624,1.724045,9.534744
2019-01-28 23:02:47:247,-0.122589,-0.114670,0.028336,-0.813202,1.523056,9.319397
2019-01-28 23:02:47:247,-0.122589,-0.114670,0.028336,-0.503326,1.597229,9.684296
2019-01-28 23:02:47:247,-0.122589,-0.114670,0.028336,-0.134827,1.570908,9.480911
2019-01-28 23:02:47:247,-0.122589,-0.114670,0.028336,0.008743,1.244293,9.267944
2019-01-28 23:02:47:247,-0.122589,-0.114670,0.028336,-0.016388,1.048080,9.194962
2019-01-28 23:02:47:247,-0.122589,-0.114670,0.028336,0.025497,1.410599,9.211716
2019-01-28 23:02:47:247,-0.122589,-0.114670,0.028336,0.321014,1.657059,9.050201
2019-01-28 23:02:47:247,-0.299118,-0.063431,0.112747,0.321014,1.657059,9.050201
2019-01-28 23:02:47:247,-0.299118,-0.063431,0.112747,0.813934,1.411789,8.930557
2019-01-28 23:02:47:247,-0.299118,-0.063431,0.112747,0.868973,0.625748,9.747711
2019-01-28 23:02:47:247,-0.299118,-0.063431,0.112747,1.114227,0.262039,10.915405
2019-01-28 23:02:47:247,-0.299118,-0.063431,0.112747,1.394196,0.410400,11.326965
2019-01-28 23:02:47:247,-0.299118,-0.063431,0.112747,0.919220,0.423553,10.231064
2019-01-28 23:02:47:247,-0.299118,-0.063431,0.112747,0.305466,0.556351,9.253586
2019-01-28 23:02:47:247,-0.299118,-0.063431,0.112747,-0.201828,1.055267,8.605133
2019-01-28 23:02:47:247,-0.299118,-0.063431,0.112747,-0.526062,1.724060,8.402939
2019-01-28 23:02:47:247,-0.299118,-0.063431,0.112747,-0.454269,2.015976,8.529770
2019-01-28 23:02:47:247,-0.299118,-0.063431,0.112747,-0.179092,1.560150,9.368454
2019-01-28 23:02:48:248,-0.053741,0.008301,0.048920,-0.179092,1.560150,9.368454
2019-01-28 23:02:48:248,-0.053741,0.008301,0.048920,0.301865,0.805206,10.543320
2019-01-28 23:02:48:248,-0.053741,0.008301,0.048920,0.641647,0.195038,11.742126
2019-01-28 23:02:48:248,-0.053741,0.008301,0.048920,0.964676,-0.044250,12.152496
2019-01-28 23:02:48:248,-0.053741,0.008301,0.048920,0.726593,-0.041855,11.161865
2019-01-28 23:02:48:248,-0.053741,0.008301,0.048920,0.201370,0.424759,9.328964
2019-01-28 23:02:48:248,-0.053741,0.008301,0.048920,0.067368,0.826736,8.402939
2019-01-28 23:02:48:248,-0.053741,0.008301,0.048920,0.311432,0.677200,8.133759
2019-01-28 23:02:48:248,-0.053741,0.008301,0.048920,0.254013,0.390060,8.731949
2019-01-28 23:02:48:248,-0.053741,0.008301,0.048920,-0.101334,0.503708,9.637634
2019-01-28 23:02:48:248,-0.114944,0.028076,0.101578,-0.101334,0.503708,9.637634
2019-01-28 23:02:48:248,-0.114944,0.028076,0.101578,-0.060654,0.583878,9.625671
2019-01-28 23:02:48:248,-0.114944,0.028076,0.101578,0.245636,0.689163,9.449799
2019-01-28 23:02:48:248,-0.114944,0.028076,0.101578,0.508850,0.689148,9.485687
2019-01-28 23:02:48:248,-0.114944,0.028076,0.101578,0.493286,0.893738,9.629257
2019-01-28 23:02:48:248,-0.114944,0.028076,0.101578,0.435867,0.920074,9.818298
2019-01-28 23:02:48:248,-0.114944,0.028076,0.101578,0.690704,0.557556,10.307632
2019-01-28 23:02:48:248,-0.114944,0.028076,0.101578,0.587814,0.555161,10.502640
2019-01-28 23:02:48:248,-0.114944,0.028076,0.101578,0.215729,0.629333,10.409317
2019-01-28 23:02:48:248,-0.114944,0.028076,0.101578,0.464584,0.824356,10.073135
2019-01-28 23:02:48:248,-0.000534,0.097168,-0.028290,0.464584,0.824356,10.073135
2019-01-28 23:02:48:248,-0.000534,0.097168,-0.028290,0.769669,0.634125,9.715408
2019-01-28 23:02:48:248,-0.000534,0.097168,-0.028290,0.870163,0.040710,9.701050
2019-01-28 23:02:48:248,-0.000534,0.097168,-0.028290,0.843842,-0.167480,9.754883
2019-01-28 23:02:48:248,-0.000534,0.097168,-0.028290,0.605759,0.019165,9.194962
2019-01-28 23:02:48:248,-0.000534,0.097168,-0.028290,0.513626,0.263245,8.377808
2019-01-28 23:02:48:248,-0.000534,0.097168,-0.028290,0.159485,0.611389,7.957886
2019-01-28 23:02:48:248,-0.000534,0.097168,-0.028290,-0.344208,0.911682,8.211517
2019-01-28 23:02:48:248,-0.000534,0.097168,-0.028290,-0.119278,1.097137,8.711609
2019-01-28 23:02:48:248,-0.000534,0.097168,-0.028290,0.255203,0.787262,9.589783
2019-01-28 23:02:48:248,-0.000534,0.097168,-0.028290,0.947922,-0.020325,10.763458
2019-01-28 23:02:48:248,-0.000534,0.097168,-0.028290,1.251816,-0.387619,11.411911
2019-01-28 23:02:48:248,-0.000534,0.097168,-0.028290,0.914429,0.064636,11.052994
2019-01-28 23:02:48:248,-0.000534,0.097168,-0.028290,0.630875,0.829147,10.552902
2019-01-28 23:02:48:248,-0.000534,0.097168,-0.028290,-0.329849,1.718079,9.434250
2019-01-28 23:02:48:248,-0.000534,0.097168,-0.028290,-0.734238,1.891556,8.925766
2019-01-28 23:02:48:248,-0.000534,0.097168,-0.028290,-0.204224,0.896133,9.717789
2019-01-28 23:02:48:248,-0.000534,0.097168,-0.028290,0.623703,-0.177048,10.968048
2019-01-28 23:02:48:248,-0.000534,0.097168,-0.028290,0.904861,-0.370865,11.158279
2019-01-28 23:02:48:248,-0.000534,0.097168,-0.028290,0.377243,0.123260,10.016907
2019-01-28 23:02:48:248,0.020782,0.096924,-0.166275,0.377243,0.123260,10.016907
2019-01-28 23:02:48:248,0.020782,0.096924,-0.166275,-0.313095,0.953568,8.883896
2019-01-28 23:02:48:248,0.020782,0.096924,-0.166275,-0.705521,1.578094,8.039230
2019-01-28 23:02:48:248,0.020782,0.096924,-0.166275,-0.636124,1.526642,7.886093
2019-01-28 23:02:48:248,0.020782,0.096924,-0.166275,-0.092957,0.891357,8.600342
2019-01-28 23:02:48:248,0.020782,0.096924,-0.166275,0.550720,-0.116028,9.446213
2019-01-28 23:02:48:248,0.020782,0.096924,-0.166275,0.736160,-0.485733,10.000153
2019-01-28 23:02:48:248,0.020782,0.096924,-0.166275,0.317429,0.242905,9.570633
2019-01-28 23:02:48:248,0.020782,0.096924,-0.166275,-0.266434,1.427353,8.796555
2019-01-28 23:02:48:248,0.020782,0.096924,-0.166275,-0.383682,1.708496,8.270142
2019-01-28 23:02:48:248,0.020782,0.096924,-0.166275,0.646439,0.630524,9.121979
2019-01-28 23:02:49:249,-0.067719,-0.037582,-0.145935,0.646439,0.630524,9.121979
2019-01-28 23:02:51:251,-0.067719,-0.037582,-0.145935,1.305664,-0.407959,11.215698
2019-01-28 23:02:51:251,-0.067719,-0.037582,-0.145935,1.020920,-0.388809,11.995773
2019-01-28 23:02:51:251,-0.067719,-0.037582,-0.145935,0.409546,0.239304,10.459579
2019-01-28 23:02:51:251,-0.067719,-0.037582,-0.145935,0.176239,0.506104,8.782211
2019-01-28 23:02:51:251,-0.067719,-0.037582,-0.145935,-0.311890,0.831528,8.048798
2019-01-28 23:02:53:253,-0.067719,-0.037582,-0.145935,-0.534439,1.141403,8.162460
2019-01-28 23:02:53:253,-0.067719,-0.037582,-0.145935,0.146332,0.685562,8.935349
2019-01-28 23:02:53:253,-0.067719,-0.037582,-0.145935,1.314026,-0.612534,10.320786
2019-01-28 23:02:53:253,-0.067719,-0.037582,-0.145935,1.066376,-0.716629,11.780411
2019-01-28 23:02:53:253,-0.146347,-0.019623,-0.174332,1.066376,-0.716629,11.780411
2019-01-28 23:02:53:253,-0.146347,-0.019623,-0.174332,-0.210205,0.732224,11.700256
2019-01-28 23:02:53:253,-0.146347,-0.019623,-0.174332,-1.130249,2.072205,10.689285
2019-01-28 23:02:53:253,-0.146347,-0.019623,-0.174332,-0.329849,1.573303,10.392578
2019-01-28 23:02:53:253,-0.146347,-0.019623,-0.174332,0.616516,0.246490,11.043411
2019-01-28 23:02:53:253,-0.146347,-0.019623,-0.174332,0.797180,-0.419922,12.372635
2019-01-28 23:02:53:253,-0.146347,-0.019623,-0.174332,0.562683,-0.202179,12.675323
2019-01-28 23:02:53:253,-0.146347,-0.019623,-0.174332,0.227692,0.157959,11.287491
2019-01-28 23:02:53:253,-0.146347,-0.019623,-0.174332,-0.080994,0.458252,9.576630
2019-01-28 23:02:53:253,-0.146347,-0.019623,-0.174332,-0.149185,0.539612,8.327560
2019-01-28 23:02:53:253,-0.146347,-0.019623,-0.174332,0.505249,-0.294296,6.207520
2019-01-28 23:02:53:253,-0.146347,-0.019623,-0.174332,0.112823,-0.303864,8.083496
2019-01-28 23:02:53:253,-0.146347,-0.019623,-0.174332,-0.143204,0.155563,8.971237
2019-01-28 23:02:53:253,-0.146347,-0.019623,-0.174332,-0.119278,0.586258,9.523972
2019-01-28 23:02:53:253,-0.146347,-0.019623,-0.174332,0.545929,0.430725,9.423477
2019-01-28 23:02:53:253,-0.146347,-0.019623,-0.174332,0.840256,0.172302,9.389984
2019-01-28 23:02:53:253,-0.146347,-0.019623,-0.174332,0.325790,0.442688,10.131760
2019-01-28 23:02:53:253,0.144974,0.025146,-0.119370,0.325790,0.442688,10.131760
2019-01-28 23:02:53:253,0.144974,0.025146,-0.119370,-0.147980,1.210785,10.368637
2019-01-28 23:02:53:253,0.144974,0.025146,-0.119370,-1.078796,1.923859,10.248993
2019-01-28 23:02:53:253,0.144974,0.025146,-0.119370,-1.131439,1.921463,9.823074
2019-01-28 23:02:53:253,0.144974,0.025146,-0.119370,-0.784485,1.165329,9.949905
2019-01-28 23:02:53:253,0.144974,0.025146,-0.119370,-0.171921,0.402023,11.136734
2019-01-28 23:02:53:253,0.144974,0.025146,-0.119370,-0.171921,0.402023,11.136734
2019-01-28 23:02:53:253,0.144974,0.025146,-0.119370,0.011139,-0.096878,11.788177
2019-01-28 23:02:53:253,0.144974,0.025146,-0.119370,0.172653,-0.323013,11.690674
2019-01-28 23:02:53:253,0.144974,0.025146,-0.119370,0.170273,-0.384033,11.793564
2019-01-28 23:02:53:253,0.144974,0.025146,-0.119370,-0.078598,-0.072968,11.398758
2019-01-28 23:02:53:253,0.144974,0.025146,-0.119370,-0.174316,0.503708,10.257385
2019-01-28 23:02:53:253,0.144974,0.025146,-0.119370,-0.399231,1.011002,8.936539
2019-01-28 23:02:53:253,0.144974,0.025146,-0.119370,-0.630142,1.360352,7.552292
2019-01-28 23:02:53:253,0.144974,0.025146,-0.119370,-0.468628,1.229935,6.761475
2019-01-28 23:02:53:253,0.172714,-0.069626,0.118866,-0.468628,1.229935,6.761475
2019-01-28 23:02:53:253,0.172714,-0.069626,0.118866,0.103271,0.547989,7.066559
2019-01-28 23:02:53:253,0.172714,-0.069626,0.118866,0.202560,-0.193802,8.349106
2019-01-28 23:02:53:253,0.172714,-0.069626,0.118866,0.578247,-0.803970,9.875717
2019-01-28 23:02:53:253,0.172714,-0.069626,0.118866,0.934769,-1.208359,10.923782
2019-01-28 23:02:53:253,0.172714,-0.069626,0.118866,0.390396,-0.783630,11.085297
2019-01-28 23:02:53:253,0.172714,-0.069626,0.118866,-0.351379,0.557556,9.894867
2019-01-28 23:02:53:253,0.172714,-0.069626,0.118866,-0.863449,1.910690,8.221085
2019-01-28 23:02:53:253,0.172714,-0.069626,0.118866,-0.681595,2.153564,7.162262
2019-01-28 23:02:53:253,0.172714,-0.069626,0.118866,-0.278397,1.076797,7.826279
2019-01-28 23:02:53:253,-0.060455,-0.025848,0.107498,-0.278397,1.076797,7.826279
2019-01-28 23:02:53:253,-0.060455,-0.025848,0.107498,0.057800,0.009598,9.771637
2019-01-28 23:02:53:253,-0.060455,-0.025848,0.107498,0.469360,-0.395996,11.075729
2019-01-28 23:02:53:253,-0.060455,-0.025848,0.107498,0.682327,-0.370865,10.984802
2019-01-28 23:02:53:253,-0.060455,-0.025848,0.107498,0.520813,-0.504868,10.643814
2019-01-28 23:02:53:253,-0.060455,-0.025848,0.107498,0.084122,-0.425903,11.160675
2019-01-28 23:02:53:253,-0.060455,-0.025848,0.107498,-0.229355,0.221359,11.703842
2019-01-28 23:02:53:253,-0.060455,-0.025848,0.107498,-0.327454,0.990646,11.480118
2019-01-28 23:02:53:253,-0.060455,-0.025848,0.107498,-0.418381,1.093536,10.738342
2019-01-28 23:02:53:253,-0.060455,-0.025848,0.107498,-0.469818,1.002625,10.393768
2019-01-28 23:02:53:253,-0.060455,-0.025848,0.107498,-0.340607,1.006210,10.502640
2019-01-28 23:02:53:253,-0.044891,-0.072037,0.247314,-0.340607,1.006210,10.502640
2019-01-28 23:02:53:253,-0.044891,-0.072037,0.247314,-0.092957,1.070816,10.738327
2019-01-28 23:02:53:253,-0.044891,-0.072037,0.247314,0.348526,0.844696,10.580414
2019-01-28 23:02:53:253,-0.044891,-0.072037,0.247314,0.294693,0.835129,10.475128
2019-01-28 23:02:53:253,-0.044891,-0.072037,0.247314,0.523209,0.623352,10.563660
2019-01-28 23:02:53:253,-0.044891,-0.072037,0.247314,0.805557,-0.060989,10.664154
2019-01-28 23:02:53:253,-0.044891,-0.072037,0.247314,0.754120,-0.448639,10.942932
2019-01-28 23:02:53:253,-0.044891,-0.072037,0.247314,0.322205,-0.095703,10.354294
2019-01-28 23:02:53:253,-0.044891,-0.072037,0.247314,0.240860,0.411591,8.987991
2019-01-28 23:02:53:253,-0.044891,-0.072037,0.247314,0.066177,0.534821,7.630066
2019-01-28 23:02:53:253,0.444412,0.183548,-0.036041,0.066177,0.534821,7.630066
2019-01-28 23:02:53:253,0.444412,0.183548,-0.036041,-0.086975,0.562332,6.738739
2019-01-28 23:02:53:253,0.444412,0.183548,-0.036041,-0.168335,0.550385,6.317596
2019-01-28 23:02:53:253,0.444412,0.183548,-0.036041,-0.141998,0.628143,5.861771
2019-01-28 23:02:53:253,0.444412,0.183548,-0.036041,-0.136032,0.855453,5.422684
2019-01-28 23:02:53:253,0.444412,0.183548,-0.036041,0.003952,1.094742,5.425064
2019-01-28 23:02:53:253,0.444412,0.183548,-0.036041,0.097275,0.924850,6.258972
2019-01-28 23:02:53:253,0.444412,0.183548,-0.036041,-0.052277,0.320663,8.874329
2019-01-28 23:02:53:253,0.444412,0.183548,-0.036041,-0.060654,-0.093292,11.891678
2019-01-28 23:02:53:253,0.444412,0.183548,-0.036041,0.066177,-0.114838,13.636047
2019-01-28 23:02:53:253,0.444412,0.183548,-0.036041,-0.401627,0.330231,13.904037
2019-01-28 23:02:53:253,-0.267105,0.087952,-0.086136,-0.401627,0.330231,13.904037
2019-01-28 23:02:53:253,-0.267105,0.087952,-0.086136,-1.044098,1.012192,12.860779
2019-01-28 23:02:53:253,-0.267105,0.087952,-0.086136,-1.395844,1.798233,11.454987
2019-01-28 23:02:53:253,-0.267105,0.087952,-0.086136,-1.440109,2.501724,9.928360
2019-01-28 23:02:53:253,-0.267105,0.087952,-0.086136,-0.863449,2.473007,8.547714
2019-01-28 23:02:53:253,-0.267105,0.087952,-0.086136,0.177444,1.123459,8.441223
2019-01-28 23:02:53:253,-0.267105,0.087952,-0.086136,0.440643,-0.328995,10.211914
2019-01-28 23:02:53:253,-0.267105,0.087952,-0.086136,0.167877,-0.387619,11.341324
2019-01-28 23:02:53:253,-0.267105,0.087952,-0.086136,-0.076202,0.483383,10.167648
2019-01-28 23:02:53:253,-0.267105,0.087952,-0.086136,-0.140808,1.176102,8.948502
2019-01-28 23:02:53:253,0.175873,0.026550,0.081543,-0.140808,1.176102,8.948502
2019-01-28 23:02:53:253,0.175873,0.026550,0.081543,-0.171921,1.150970,8.976028
2019-01-28 23:02:53:253,0.175873,0.026550,0.081543,-0.792847,1.164139,9.492874
2019-01-28 23:02:53:253,0.175873,0.026550,0.081543,-0.699539,1.427353,9.430664
2019-01-28 23:02:53:253,0.175873,0.026550,0.081543,-0.264038,1.402222,8.535751
2019-01-28 23:02:53:253,0.175873,0.026550,0.081543,-0.033127,1.209595,8.017700
2019-01-28 23:02:53:253,0.175873,0.026550,0.081543,0.057800,1.155762,8.235443
2019-01-28 23:02:53:253,0.175873,0.026550,0.081543,0.007553,1.103119,8.870743
2019-01-28 23:02:53:253,0.175873,0.026550,0.081543,0.104462,0.696335,9.586197
2019-01-28 23:02:53:253,0.175873,0.026550,0.081543,0.425095,0.004807,10.301651
2019-01-28 23:02:53:253,0.079056,-0.021637,0.035492,0.425095,0.004807,10.301651
2019-01-28 23:02:53:253,0.079056,-0.021637,0.035492,0.501663,-0.313446,11.037445
2019-01-28 23:02:53:253,0.079056,-0.021637,0.035492,0.013535,0.329041,10.708420
2019-01-28 23:02:53:253,0.079056,-0.021637,0.035492,-0.766525,1.658249,9.070541
2019-01-28 23:02:53:253,0.079056,-0.021637,0.035492,-1.294159,3.035324,6.708832
2019-01-28 23:02:53:253,0.079056,-0.021637,0.035492,-0.894547,3.349976,5.492065
2019-01-28 23:02:53:253,0.079056,-0.021637,0.035492,0.311432,1.613983,7.058167
2019-01-28 23:02:53:253,0.079056,-0.021637,0.035492,0.974243,-0.721420,10.771835
2019-01-28 23:02:53:253,0.079056,-0.021637,0.035492,1.162094,-1.670181,14.215118
2019-01-28 23:02:53:253,0.079056,-0.021637,0.035492,1.087906,-1.046844,13.649200
2019-01-28 23:02:53:253,0.079056,-0.021637,0.035492,0.179840,0.319473,10.680908
2019-01-28 23:02:53:253,-0.188187,0.017090,-0.033966,0.179840,0.319473,10.680908
2019-01-28 23:02:53:253,-0.188187,0.017090,-0.033966,-1.407806,1.950180,8.852798
2019-01-28 23:02:53:253,-0.188187,0.017090,-0.033966,-1.928253,2.806808,7.490082
2019-01-28 23:02:53:253,-0.188187,0.017090,-0.033966,-0.423172,1.665436,7.545120
2019-01-28 23:02:53:253,-0.188187,0.017090,-0.033966,0.707443,0.086166,9.192566
2019-01-28 23:02:53:253,-0.188187,0.017090,-0.033966,0.804352,-0.474960,10.735947
2019-01-28 23:02:53:253,-0.188187,0.017090,-0.033966,0.423904,0.076599,10.399750
2019-01-28 23:02:53:253,-0.188187,0.017090,-0.033966,-0.165939,0.872208,9.509628
2019-01-28 23:02:53:253,-0.188187,0.017090,-0.033966,-0.570328,1.334030,9.987000
2019-01-28 23:02:53:253,-0.188187,0.017090,-0.033966,-0.919678,1.854462,10.896255
2019-01-28 23:02:53:253,-0.047073,-0.019012,-0.074646,-0.919678,1.854462,10.896255
2019-01-28 23:02:53:253,-0.047073,-0.019012,-0.074646,-1.095551,2.525650,10.768250
2019-01-28 23:02:53:253,-0.047073,-0.019012,-0.074646,0.292297,2.051865,9.619690
2019-01-28 23:02:53:253,-0.047073,-0.019012,-0.074646,2.016327,0.107697,8.981995
2019-01-28 23:02:53:253,-0.047073,-0.019012,-0.074646,1.250626,-1.135376,10.378220
2019-01-28 23:02:53:253,-0.047073,-0.019012,-0.074646,0.124802,-0.458206,11.532761
2019-01-28 23:02:53:253,-0.047073,-0.019012,-0.074646,-0.075012,0.135223,10.597153
2019-01-28 23:02:53:253,-0.047073,-0.019012,-0.074646,-0.371719,0.393646,10.269348
2019-01-28 23:02:53:253,-0.047073,-0.019012,-0.074646,-1.194855,1.237122,10.464355
2019-01-28 23:02:53:253,-0.047073,-0.019012,-0.074646,-1.967743,2.554367,9.588593
2019-01-28 23:02:53:253,-0.047073,-0.019012,-0.074646,-1.605225,3.253067,8.451996
2019-01-28 23:02:53:253,0.199951,-0.106720,-0.046921,-1.605225,3.253067,8.451996
2019-01-28 23:02:53:253,0.199951,-0.106720,-0.046921,-0.214981,2.178696,8.789383
2019-01-28 23:02:53:253,0.199951,-0.106720,-0.046921,1.981628,-0.778854,10.868744
2019-01-28 23:02:53:253,0.199951,-0.106720,-0.046921,1.290100,-1.962097,13.973434
2019-01-28 23:02:53:253,0.199951,-0.106720,-0.046921,0.255219,-0.233276,12.948105
2019-01-28 23:02:53:253,0.199951,-0.106720,-0.046921,-0.932831,2.086563,8.624283
2019-01-28 23:02:53:253,0.199951,-0.106720,-0.046921,-0.811996,2.642899,5.602142
2019-01-28 23:02:53:253,0.199951,-0.106720,-0.046921,-0.179092,1.843689,5.565063
2019-01-28 23:02:53:253,0.199951,-0.106720,-0.046921,0.178635,1.241898,6.818893
2019-01-28 23:02:53:253,0.199951,-0.106720,-0.046921,0.774445,0.594635,7.761658
2019-01-28 23:02:53:253,-0.332230,-0.150101,0.110687,0.774445,0.594635,7.761658
2019-01-28 23:02:53:253,-0.332230,-0.150101,0.110687,1.091507,-0.133972,8.700851
2019-01-28 23:02:53:253,-0.332230,-0.150101,0.110687,0.779236,-0.029892,9.656784
2019-01-28 23:02:53:253,-0.332230,-0.150101,0.110687,0.073349,0.940414,9.937943
2019-01-28 23:02:53:253,-0.332230,-0.150101,0.110687,0.000366,1.439301,9.769241
2019-01-28 23:02:53:253,-0.332230,-0.150101,0.110687,-0.199432,1.067230,11.108032
2019-01-28 23:02:53:253,-0.332230,-0.150101,0.110687,-0.126450,0.993042,12.907425
2019-01-28 23:02:53:253,-0.332230,-0.150101,0.110687,0.050629,1.057663,13.240036
2019-01-28 23:02:53:253,-0.332230,-0.150101,0.110687,0.527985,0.661636,11.724182
2019-01-28 23:02:53:253,-0.332230,-0.150101,0.110687,0.712234,0.123260,10.320786
2019-01-28 23:02:53:253,-0.332230,-0.150101,0.110687,0.443039,0.344589,9.345718
2019-01-28 23:02:53:253,0.136490,0.014465,0.082581,0.443039,0.344589,9.345718
2019-01-28 23:02:53:253,0.136490,0.014465,0.082581,-0.046295,1.359146,7.787994
2019-01-28 23:02:53:253,0.136490,0.014465,0.082581,-0.019974,1.794647,6.376221
2019-01-28 23:02:53:253,0.136490,0.014465,0.082581,1.274551,0.576706,6.897858
2019-01-28 23:02:53:253,0.136490,0.014465,0.082581,0.932373,-0.291916,9.522781
2019-01-28 23:02:53:253,0.136490,0.014465,0.082581,0.195389,0.384064,11.336548
2019-01-28 23:02:53:253,0.136490,0.014465,0.082581,-0.019974,1.283783,11.203735
2019-01-28 23:02:53:253,0.136490,0.014465,0.082581,0.433472,0.995438,10.394958
2019-01-28 23:02:53:253,0.136490,0.014465,0.082581,0.734970,0.708298,10.844818
2019-01-28 23:02:53:253,0.136490,0.014465,0.082581,-0.057068,1.274200,11.047012
2019-01-28 23:02:53:253,0.070206,0.011719,0.024063,-0.057068,1.274200,11.047012
2019-01-28 23:02:53:253,0.070206,0.011719,0.024063,-0.246094,2.013580,10.339935
2019-01-28 23:02:53:253,0.070206,0.011719,0.024063,0.214523,1.575699,9.622086
2019-01-28 23:02:53:253,0.070206,0.011719,0.024063,0.967072,0.221359,10.148514
2019-01-28 23:02:53:253,0.070206,0.011719,0.024063,0.751724,-0.260803,11.679916
2019-01-28 23:02:53:253,0.070206,0.011719,0.024063,0.606949,0.168716,11.154694
2019-01-28 23:02:53:253,0.070206,0.011719,0.024063,0.450226,0.932022,9.348099
2019-01-28 23:02:53:253,0.070206,0.011719,0.024063,0.063782,1.489563,8.026077
2019-01-28 23:02:53:253,0.070206,0.011719,0.024063,-0.085785,1.487167,7.596558
2019-01-28 23:02:53:253,0.070206,0.011719,0.024063,0.337769,0.769318,8.460373
2019-01-28 23:02:53:253,-0.053421,0.079086,-0.043991,0.337769,0.769318,8.460373
2019-01-28 23:02:53:253,-0.053421,0.079086,-0.043991,0.567474,0.034729,10.398560
2019-01-28 23:02:53:253,-0.053421,0.079086,-0.043991,0.791199,0.034714,11.395172
2019-01-28 23:02:53:253,-0.053421,0.079086,-0.043991,0.365280,0.646088,11.036240
2019-01-28 23:02:53:253,-0.053421,0.079086,-0.043991,-0.061844,1.185669,10.336349
2019-01-28 23:02:53:253,-0.053421,0.079086,-0.043991,-0.473419,1.609207,10.438034
2019-01-28 23:02:53:253,-0.053421,0.079086,-0.043991,-0.366928,1.586472,10.720398
2019-01-28 23:02:53:253,-0.053421,0.079086,-0.043991,0.041046,1.025345,10.923782
2019-01-28 23:02:53:253,-0.053421,0.079086,-0.043991,0.589005,0.110092,10.770645
2019-01-28 23:02:53:253,-0.053421,0.079086,-0.043991,0.706253,-0.105270,10.237045
2019-01-28 23:02:53:253,-0.053421,0.079086,-0.043991,0.525604,0.279984,8.984390
2019-01-28 23:02:53:253,0.053528,0.069260,-0.163345,0.525604,0.279984,8.984390
2019-01-28 23:02:53:253,0.053528,0.069260,-0.163345,0.422699,0.954758,7.192169
2019-01-28 23:02:53:253,0.053528,0.069260,-0.163345,0.527985,1.325653,5.731354
2019-01-28 23:02:53:253,0.053528,0.069260,-0.163345,0.275543,1.111496,5.908432
2019-01-28 23:02:53:253,0.053528,0.069260,-0.163345,-0.033142,0.725052,7.735352
2019-01-28 23:02:53:253,0.053528,0.069260,-0.163345,0.242050,0.515686,9.532349
2019-01-28 23:02:53:253,0.053528,0.069260,-0.163345,0.343750,0.684372,10.081497
2019-01-28 23:02:53:253,0.053528,0.069260,-0.163345,0.049423,1.188065,9.714218
2019-01-28 23:02:53:253,0.053528,0.069260,-0.163345,-0.369324,1.654663,9.735748
2019-01-28 23:02:53:253,0.053528,0.069260,-0.163345,-0.762939,1.593643,10.380615
2019-01-28 23:02:53:253,0.016083,-0.053711,0.043976,-0.762939,1.593643,10.380615
2019-01-28 23:02:53:253,0.016083,-0.053711,0.043976,-0.632538,1.109100,11.407135
2019-01-28 23:02:53:253,0.016083,-0.053711,0.043976,-0.101334,0.417572,11.813904
2019-01-28 23:02:53:253,0.016083,-0.053711,0.043976,0.204956,-0.066971,11.451401
2019-01-28 23:02:53:253,0.016083,-0.053711,0.043976,0.005157,0.342209,10.631851
2019-01-28 23:02:53:253,0.016083,-0.053711,0.043976,-0.433929,1.317276,9.305038
2019-01-28 23:02:53:253,0.016083,-0.053711,0.043976,-0.644501,2.044693,7.974625
2019-01-28 23:02:53:253,0.016083,-0.053711,0.043976,-0.216187,2.043488,7.324982
2019-01-28 23:02:53:253,0.016083,-0.053711,0.043976,0.069763,1.581680,7.848999
2019-01-28 23:02:53:253,0.016083,-0.053711,0.043976,0.079330,0.935623,9.440231
2019-01-28 23:02:53:253,0.016083,-0.053711,0.043976,0.665573,-0.032288,11.153488
2019-01-28 23:02:53:253,0.016083,-0.053711,0.043976,0.957504,-0.982239,12.263763
2019-01-28 23:02:53:253,0.016083,-0.053711,0.043976,0.723007,-0.672363,11.967056
2019-01-28 23:02:53:253,0.016083,-0.053711,0.043976,0.106857,0.837509,9.723785
2019-01-28 23:02:53:253,0.016083,-0.053711,0.043976,-0.401627,2.283966,7.088089
2019-01-28 23:02:53:253,0.016083,-0.053711,0.043976,-0.542801,2.773315,5.743317
2019-01-28 23:02:53:253,0.016083,-0.053711,0.043976,-0.549988,2.163147,7.045013
2019-01-28 23:02:53:253,0.016083,-0.053711,0.043976,-0.540405,1.243103,9.468948
2019-01-28 23:02:53:253,0.016083,-0.053711,0.043976,0.102066,0.408005,11.636841
2019-01-28 23:02:53:253,0.016083,-0.053711,0.043976,1.040054,-0.363693,12.518600
2019-01-28 23:02:53:253,-0.093567,-0.104218,0.142380,1.040054,-0.363693,12.518600
2019-01-28 23:02:53:253,-0.093567,-0.104218,0.142380,1.214722,-0.685516,12.413315
2019-01-28 23:02:53:253,-0.093567,-0.104218,0.142380,0.539948,0.021561,11.640427
2019-01-28 23:02:53:253,-0.093567,-0.104218,0.142380,-0.237717,1.209595,10.269348
2019-01-28 23:02:53:253,-0.093567,-0.104218,0.142380,-0.430344,2.069824,8.638626
2019-01-28 23:02:53:253,-0.093567,-0.104218,0.142380,-0.344193,1.919067,7.774826
2019-01-28 23:02:53:253,-0.093567,-0.104218,0.142380,-0.139618,1.221558,8.621887
2019-01-28 23:02:53:253,-0.093567,-0.104218,0.142380,0.511246,0.413986,10.087494
2019-01-28 23:02:53:253,-0.093567,-0.104218,0.142380,1.329590,-0.282333,11.452591
2019-01-28 23:02:53:253,-0.093567,-0.104218,0.142380,1.810547,-0.549133,11.961075
2019-01-28 23:02:53:253,-0.093567,-0.104218,0.142380,1.113037,0.197433,11.659576
2019-01-28 23:02:53:253,0.040817,-0.016815,0.072739,1.113037,0.197433,11.659576
2019-01-28 23:02:53:253,0.040817,-0.016815,0.072739,0.265976,1.313690,11.043427
2019-01-28 23:02:53:253,0.040817,-0.016815,0.072739,0.131973,1.704910,10.475128
2019-01-28 23:02:53:253,0.040817,-0.016815,0.072739,0.317413,1.574509,9.904434
2019-01-28 23:02:53:253,0.040817,-0.016815,0.072739,0.512436,1.338806,9.413910
2019-01-28 23:02:53:253,0.040817,-0.016815,0.072739,0.331787,1.158157,9.214111
2019-01-28 23:02:53:253,0.040817,-0.016815,0.072739,0.312637,0.831528,9.209320
2019-01-28 23:02:53:253,0.040817,-0.016815,0.072739,0.769669,0.037109,9.573029
2019-01-28 23:02:53:253,0.040817,-0.016815,0.072739,0.651215,-0.434280,10.254990
2019-01-28 23:02:53:253,0.040817,-0.016815,0.072739,0.068573,0.147186,10.497864
2019-01-28 23:02:53:253,0.243927,-0.022980,-0.192474,0.068573,0.147186,10.497864
2019-01-28 23:02:53:253,0.243927,-0.022980,-0.192474,-0.688766,1.404617,9.491669
2019-01-28 23:02:53:253,0.243927,-0.022980,-0.192474,-0.989059,2.571106,7.149109
2019-01-28 23:02:53:253,0.243927,-0.022980,-0.192474,-0.823959,2.951569,5.403534
2019-01-28 23:02:53:253,0.243927,-0.022980,-0.192474,-0.350189,2.301926,6.467148
2019-01-28 23:02:53:253,0.243927,-0.022980,-0.192474,0.885712,0.799225,9.394775
2019-01-28 23:02:53:253,0.243927,-0.022980,-0.192474,1.896683,-0.952316,12.248199
2019-01-28 23:02:53:253,0.243927,-0.022980,-0.192474,1.905060,-1.458405,13.643219
2019-01-28 23:02:53:253,0.243927,-0.022980,-0.192474,0.597382,-0.258408,12.348709
2019-01-28 23:02:53:253,0.243927,-0.022980,-0.192474,-0.764145,1.531433,9.836243
2019-01-28 23:02:53:253,-0.180862,0.015015,-0.023224,-0.764145,1.531433,9.836243
2019-01-28 23:02:53:253,-0.180862,0.015015,-0.023224,-1.623169,2.725449,8.150497
2019-01-28 23:02:53:253,-0.180862,0.015015,-0.023224,-1.108704,2.456268,7.826279
2019-01-28 23:02:53:253,-0.180862,0.015015,-0.023224,-0.077408,1.094742,9.089691
2019-01-28 23:02:53:253,-0.180862,0.015015,-0.023224,1.010147,-0.421127,11.062561
2019-01-28 23:02:53:253,-0.180862,0.015015,-0.023224,1.754303,-1.219131,12.296066
2019-01-28 23:02:53:253,-0.180862,0.015015,-0.023224,1.075943,-0.422318,11.653595
2019-01-28 23:02:53:253,-0.180862,0.015015,-0.023224,-0.095352,1.295746,9.847015
2019-01-28 23:02:53:253,-0.180862,0.015015,-0.023224,-0.825150,2.537613,8.309631
2019-01-28 23:02:53:253,-0.180862,0.015015,-0.023224,-0.614594,2.512482,8.041626
2019-01-28 23:02:53:253,-0.180862,0.015015,-0.023224,0.301865,1.247879,9.188980
2019-01-28 23:02:53:253,-0.049530,-0.038742,0.104202,0.301865,1.247879,9.188980
2019-01-28 23:02:53:253,-0.049530,-0.038742,0.104202,1.187210,-0.198578,10.896255
2019-01-28 23:02:53:253,-0.049530,-0.038742,0.104202,0.918015,-0.461792,12.017303
2019-01-28 23:02:53:253,-0.049530,-0.038742,0.104202,0.175049,0.387665,11.279114
2019-01-28 23:02:53:253,-0.049530,-0.038742,0.104202,-0.277206,1.288559,9.753693
2019-01-28 23:02:53:253,-0.049530,-0.038742,0.104202,-0.223358,1.393845,9.284698
2019-01-28 23:02:53:253,-0.049530,-0.038742,0.104202,0.122406,1.027740,9.691483
2019-01-28 23:02:53:253,-0.049530,-0.038742,0.104202,0.831879,0.382874,10.245422
2019-01-28 23:02:53:253,-0.049530,-0.038742,0.104202,1.071152,0.148376,10.569641
2019-01-28 23:02:53:253,-0.049530,-0.038742,0.104202,0.795990,0.326645,10.299255
2019-01-28 23:02:53:253,0.131836,0.019531,-0.024368,0.795990,0.326645,10.299255
2019-01-28 23:02:53:253,0.131836,0.019531,-0.024368,0.740952,0.497726,9.699844
2019-01-28 23:02:53:253,0.131836,0.019531,-0.024368,0.371262,0.723862,9.789581
2019-01-28 23:02:53:253,0.131836,0.019531,-0.024368,-0.120468,1.299332,9.979813
2019-01-28 23:02:53:253,0.131836,0.019531,-0.024368,-0.216187,1.751572,9.263168
2019-01-28 23:02:53:253,0.131836,0.019531,-0.024368,0.048233,1.539810,8.428070
2019-01-28 23:02:53:253,0.131836,0.019531,-0.024368,0.815125,0.740601,8.351501
2019-01-28 23:02:53:253,0.131836,0.019531,-0.024368,1.262589,0.050278,8.930557
2019-01-28 23:02:53:253,0.131836,0.019531,-0.024368,1.172852,-0.177048,9.783600
2019-01-28 23:02:53:253,0.131836,0.019531,-0.024368,1.168076,-0.338562,10.499054
2019-01-28 23:02:53:253,0.131836,0.019531,-0.024368,0.338959,0.017975,10.895065
2019-01-28 23:02:54:254,0.055359,-0.004471,0.031448,0.338959,0.017975,10.895065
2019-01-28 23:02:54:254,0.055359,-0.004471,0.031448,-0.731842,1.206009,10.624680
2019-01-28 23:02:54:254,0.055359,-0.004471,0.031448,-1.514297,2.596237,8.989182
2019-01-28 23:02:54:254,0.055359,-0.004471,0.031448,-1.180496,2.890549,7.443420
2019-01-28 23:02:54:254,0.055359,-0.004471,0.031448,0.288712,1.789856,7.561859
2019-01-28 23:02:54:254,0.055359,-0.004471,0.031448,1.099869,0.240509,9.571838
2019-01-28 23:02:54:254,0.055359,-0.004471,0.031448,1.105850,-0.575455,12.124969
2019-01-28 23:02:54:254,0.055359,-0.004471,0.031448,1.346329,-0.579041,12.943329
2019-01-28 23:02:54:254,0.055359,-0.004471,0.031448,0.679932,0.385269,11.617691
2019-01-28 23:02:54:254,0.055359,-0.004471,0.031448,-0.287964,1.606812,10.323181
2019-01-28 23:02:54:254,-0.042496,-0.006485,-0.002884,-0.287964,1.606812,10.323181
2019-01-28 23:02:54:254,-0.042496,-0.006485,-0.002884,-0.472214,2.132034,9.507233
2019-01-28 23:02:54:254,-0.042496,-0.006485,-0.002884,-0.551178,1.988464,9.113617
2019-01-28 23:02:54:254,-0.042496,-0.006485,-0.002884,0.259995,1.247879,9.238037
2019-01-28 23:02:54:254,-0.042496,-0.006485,-0.002884,2.000778,-0.160294,9.476120
2019-01-28 23:02:54:254,-0.042496,-0.006485,-0.002884,1.948120,-0.815933,10.083893
2019-01-28 23:02:54:254,-0.042496,-0.006485,-0.002884,0.932373,-0.156708,10.301651
2019-01-28 23:02:54:254,-0.042496,-0.006485,-0.002884,0.688309,0.362534,9.957077
2019-01-28 23:02:54:254,-0.042496,-0.006485,-0.002884,0.618927,0.178284,10.123383
2019-01-28 23:02:54:254,-0.042496,-0.006485,-0.002884,0.049423,0.248886,10.524185
2019-01-28 23:02:54:254,-0.042496,-0.006485,-0.002884,-1.017776,1.239502,10.219101
2019-01-28 23:02:54:254,0.134766,0.128387,-0.134201,-1.017776,1.239502,10.219101
2019-01-28 23:02:54:254,0.134766,0.128387,-0.134201,-2.190262,2.721863,8.627869
2019-01-28 23:02:54:254,0.134766,0.128387,-0.134201,-1.437729,2.921661,6.707626
2019-01-28 23:02:54:254,0.134766,0.128387,-0.134201,0.338959,1.284973,6.652588
2019-01-28 23:02:54:254,0.134766,0.128387,-0.134201,0.763687,0.051468,8.944916
2019-01-28 23:02:54:254,0.134766,0.128387,-0.134201,0.498077,0.171112,11.713409
2019-01-28 23:02:54:254,0.134766,0.128387,-0.134201,0.561493,0.525253,12.095078
2019-01-28 23:02:54:254,0.134766,0.128387,-0.134201,0.325790,0.748978,11.197754
2019-01-28 23:02:54:254,0.134766,0.128387,-0.134201,-0.278397,1.022964,10.723984
2019-01-28 23:02:54:254,0.134766,0.128387,-0.134201,-0.412399,1.331635,10.220291
2019-01-28 23:02:54:254,0.163116,0.121735,-0.207077,-0.412399,1.331635,10.220291
2019-01-28 23:02:54:254,0.163116,0.121735,-0.207077,-0.278397,1.531433,9.258377
2019-01-28 23:02:54:254,0.163116,0.121735,-0.207077,-0.169525,1.535019,8.067947
2019-01-28 23:02:54:254,0.163116,0.121735,-0.207077,-0.144394,1.314880,7.275925
2019-01-28 23:02:54:254,0.163116,0.121735,-0.207077,-0.281982,1.226349,6.981613
2019-01-28 23:02:54:254,0.163116,0.121735,-0.207077,-0.137222,1.238312,6.681305
2019-01-28 23:02:54:254,0.163116,0.121735,-0.207077,0.483719,0.549179,7.061768
2019-01-28 23:02:54:254,0.163116,0.121735,-0.207077,0.953903,-0.370865,9.141129
2019-01-28 23:02:54:254,0.163116,0.121735,-0.207077,0.068573,-0.057404,11.341324
2019-01-28 23:02:54:254,0.163116,0.121735,-0.207077,-0.889755,1.418976,11.600952
2019-01-28 23:02:54:254,-0.202240,-0.084427,-0.012772,-0.889755,1.418976,11.600952
2019-01-28 23:02:54:254,-0.202240,-0.084427,-0.012772,-0.995041,2.129639,10.734741
2019-01-28 23:02:54:254,-0.202240,-0.084427,-0.012772,-0.838318,1.716873,10.723984
2019-01-28 23:02:54:254,-0.202240,-0.084427,-0.012772,-1.149384,1.271805,11.572235
2019-01-28 23:02:54:254,-0.202240,-0.084427,-0.012772,-1.397049,1.196442,11.694275
2019-01-28 23:02:54:254,-0.202240,-0.084427,-0.012772,-0.973511,1.111496,10.113800
2019-01-28 23:02:54:254,-0.202240,-0.084427,-0.012772,-0.326263,0.879379,8.760666
2019-01-28 23:02:54:254,-0.202240,-0.084427,-0.012772,0.074554,0.804016,7.951889
2019-01-28 23:02:54:254,-0.202240,-0.084427,-0.012772,0.212143,0.613785,8.591980
2019-01-28 23:02:54:254,-0.202240,-0.084427,-0.012772,0.732574,-0.077744,10.089874
2019-01-28 23:02:54:254,-0.202240,-0.084427,-0.012772,0.227692,-0.368469,11.756485
2019-01-28 23:02:55:255,-0.025452,-0.136292,0.385132,0.227692,-0.368469,11.756485
2019-01-28 23:02:55:255,-0.025452,-0.136292,0.385132,-0.110901,0.361343,12.497055
2019-01-28 23:02:55:255,-0.025452,-0.136292,0.385132,-0.168335,1.288559,11.745712
2019-01-28 23:02:55:255,-0.025452,-0.136292,0.385132,-0.161148,1.726456,10.689285
2019-01-28 23:02:55:255,-0.025452,-0.136292,0.385132,-0.520065,1.989655,10.155685
2019-01-28 23:02:55:255,-0.025452,-0.136292,0.385132,-0.802429,2.245682,9.762070
2019-01-28 23:02:55:255,-0.025452,-0.136292,0.385132,-0.296341,1.832932,9.327774
2019-01-28 23:02:55:255,-0.025452,-0.136292,0.385132,0.578232,0.411591,9.781204
2019-01-28 23:02:55:255,-0.025452,-0.136292,0.385132,1.042450,-0.674759,11.293472
2019-01-28 23:02:55:255,-0.025452,-0.136292,0.385132,1.324799,-0.571869,11.366455
2019-01-28 23:02:55:255,-0.144150,-0.061218,0.231567,1.324799,-0.571869,11.366455
2019-01-28 23:02:55:255,-0.144150,-0.061218,0.231567,0.889313,0.291946,9.288284
2019-01-28 23:02:55:255,-0.144150,-0.061218,0.231567,0.584229,1.226349,7.195755
2019-01-28 23:02:55:255,-0.144150,-0.061218,0.231567,0.281525,1.696533,6.080704
2019-01-28 23:02:55:255,-0.144150,-0.061218,0.231567,0.012344,1.904709,6.689682
2019-01-28 23:02:55:255,-0.144150,-0.061218,0.231567,0.055405,1.718063,8.072739
2019-01-28 23:02:55:255,-0.144150,-0.061218,0.231567,0.622513,1.006210,9.768051
2019-01-28 23:02:55:255,-0.144150,-0.061218,0.231567,1.014923,-0.150726,12.262558
2019-01-28 23:02:55:255,-0.144150,-0.061218,0.231567,1.209946,-0.447433,14.491486
2019-01-28 23:02:55:255,-0.144150,-0.061218,0.231567,1.153717,-0.172272,14.743927
2019-01-28 23:02:55:255,-0.144150,-0.061218,0.231567,0.074554,0.867432,13.237640
2019-01-28 23:02:55:255,0.441238,0.088608,0.068588,0.074554,0.867432,13.237640
2019-01-28 23:02:55:255,0.441238,0.088608,0.068588,-0.609802,2.554367,10.685684
2019-01-28 23:02:55:255,0.441238,0.088608,0.068588,-0.777298,3.708908,8.072739
2019-01-28 23:02:55:255,0.441238,0.088608,0.068588,-0.521271,3.142990,7.531952
2019-01-28 23:02:55:255,0.441238,0.088608,0.068588,0.027893,1.619965,9.392380
2019-01-28 23:02:55:255,0.441238,0.088608,0.068588,0.933563,0.497742,10.696472
2019-01-28 23:02:55:255,0.441238,0.088608,0.068588,1.206360,-0.046646,10.489487
2019-01-28 23:02:55:255,0.441238,0.088608,0.068588,0.791199,0.144791,9.443817
2019-01-28 23:02:55:255,0.441238,0.088608,0.068588,0.488510,0.667633,8.138535
2019-01-28 23:02:55:255,0.441238,0.088608,0.068588,0.347336,1.131836,7.083298
2019-01-28 23:02:55:255,-0.042740,0.139557,-0.138550,0.347336,1.131836,7.083298
2019-01-28 23:02:56:256,-0.042740,0.139557,-0.138550,-0.057068,1.414185,6.694473
2019-01-28 23:02:56:256,-0.042740,0.139557,-0.138550,-0.037918,1.463242,6.400146
2019-01-28 23:02:56:256,-0.042740,0.139557,-0.138550,0.001572,1.441696,6.464752
2019-01-28 23:02:56:256,-0.042740,0.139557,-0.138550,-0.008011,1.666626,6.375015
2019-01-28 23:02:56:256,-0.042740,0.139557,-0.138550,-0.088181,1.926254,6.382202
2019-01-28 23:02:56:256,-0.042740,0.139557,-0.138550,0.068573,1.848480,7.277115
2019-01-28 23:02:56:256,-0.042740,0.139557,-0.138550,0.141556,1.188065,8.959274
2019-01-28 23:02:56:256,-0.042740,0.139557,-0.138550,0.341354,0.393646,11.029068
2019-01-28 23:02:56:256,-0.042740,0.139557,-0.138550,0.207352,0.106506,12.692078
2019-01-28 23:02:56:256,-0.042740,0.139557,-0.138550,-0.095352,0.638916,12.716003
2019-01-28 23:02:56:256,-0.300095,-0.099152,-0.014359,-0.095352,0.638916,12.716003
2019-01-28 23:02:56:256,-0.300095,-0.099152,-0.014359,-0.450684,1.612793,10.561264
2019-01-28 23:02:56:256,-0.300095,-0.099152,-0.014359,-1.095551,2.339020,8.950897
2019-01-28 23:02:56:256,-0.300095,-0.099152,-0.014359,-0.867035,1.933426,9.461761
2019-01-28 23:02:56:256,-0.300095,-0.099152,-0.014359,-0.657669,1.232330,11.334152
2019-01-28 23:02:56:256,-0.300095,-0.099152,-0.014359,-0.381287,1.268219,12.296066
2019-01-28 23:02:56:256,-0.300095,-0.099152,-0.014359,-0.204224,1.631927,11.774429
2019-01-28 23:02:56:256,-0.300095,-0.099152,-0.014359,0.114029,1.424957,11.703842
2019-01-28 23:02:56:256,-0.300095,-0.099152,-0.014359,-0.205414,1.073212,12.961273
2019-01-28 23:02:56:256,-0.300095,-0.099152,-0.014359,-0.096542,1.184479,13.785599
2019-01-28 23:02:56:256,-0.300095,-0.099152,-0.014359,0.225296,1.318466,12.430069
2019-01-28 23:02:56:256,-0.300095,-0.099152,-0.014359,0.438263,1.155762,10.619888
2019-01-28 23:02:56:256,-0.300095,-0.099152,-0.014359,0.291092,1.001419,9.293076
2019-01-28 23:02:56:256,-0.300095,-0.099152,-0.014359,-0.228149,1.192856,8.313217
2019-01-28 23:02:56:256,-0.300095,-0.099152,-0.014359,0.021912,1.458450,7.467346
2019-01-28 23:02:56:256,-0.300095,-0.099152,-0.014359,0.462189,1.165329,6.737534
2019-01-28 23:02:56:256,-0.300095,-0.099152,-0.014359,0.246826,0.740601,7.149094
2019-01-28 23:02:56:256,-0.300095,-0.099152,-0.014359,-0.132431,0.935623,8.553680
2019-01-28 23:02:56:256,-0.300095,-0.099152,-0.014359,0.188217,1.246689,8.454391
2019-01-28 23:02:56:256,0.338547,-0.043320,0.078552,0.188217,1.246689,8.454391
2019-01-28 23:02:56:256,0.338547,-0.043320,0.078552,0.630875,1.318466,8.029663
2019-01-28 23:02:56:256,0.338547,-0.043320,0.078552,0.329376,1.293350,8.548904
2019-01-28 23:02:56:256,0.338547,-0.043320,0.078552,0.179840,1.524246,9.496460
2019-01-28 23:02:56:256,0.338547,-0.043320,0.078552,0.423904,1.308899,9.967850
2019-01-28 23:02:56:256,0.338547,-0.043320,0.078552,0.550720,0.695145,10.274124
2019-01-28 23:02:56:256,0.338547,-0.043320,0.078552,-0.004425,0.727448,10.703644
2019-01-28 23:02:56:256,0.338547,-0.043320,0.078552,0.041046,1.277786,9.922394
2019-01-28 23:02:56:256,0.338547,-0.043320,0.078552,-0.431534,1.805420,8.856384
2019-01-28 23:02:56:256,0.338547,-0.043320,0.078552,-0.651688,2.267227,8.297653
2019-01-28 23:02:56:256,0.338547,-0.043320,0.078552,-0.870621,2.719467,7.997360
2019-01-28 23:02:56:256,0.070206,-0.013870,0.064682,-0.870621,2.719467,7.997360
2019-01-28 23:02:56:256,0.070206,-0.013870,0.064682,-0.755768,2.879791,8.053589
2019-01-28 23:02:56:256,0.070206,-0.013870,0.064682,-0.191055,2.687164,8.812119
2019-01-28 23:02:56:256,0.070206,-0.013870,0.064682,0.326996,1.816177,9.952286
2019-01-28 23:02:56:256,0.070206,-0.013870,0.064682,0.616531,0.893738,11.506424
2019-01-28 23:02:56:256,0.070206,-0.013870,0.064682,0.839050,0.801620,12.291275
2019-01-28 23:02:56:256,0.070206,-0.013870,0.064682,1.010147,0.802811,11.323380
2019-01-28 23:02:56:256,0.070206,-0.013870,0.064682,0.725403,0.603027,10.240631
2019-01-28 23:02:57:257,0.070206,-0.013870,0.064682,0.299469,0.819565,9.470139
2019-01-28 23:02:57:257,0.070206,-0.013870,0.064682,0.011139,1.318466,8.079910
2019-01-28 23:02:57:257,0.091095,-0.002335,0.149536,0.011139,1.318466,8.079910
2019-01-28 23:02:57:257,0.091095,-0.002335,0.149536,0.064972,1.691757,6.562851
2019-01-28 23:02:57:257,0.091095,-0.002335,0.149536,-0.023575,1.773102,5.898849
2019-01-28 23:02:57:257,0.091095,-0.002335,0.149536,-0.601440,2.011185,6.319992
2019-01-28 23:02:57:257,0.091095,-0.002335,0.149536,-0.868225,2.440704,7.133545
2019-01-28 23:02:57:257,0.091095,-0.002335,0.149536,-0.278397,2.305511,8.674530
2019-01-28 23:02:57:257,0.091095,-0.002335,0.149536,1.184814,0.753769,11.056580
2019-01-28 23:02:57:257,0.091095,-0.002335,0.149536,1.290100,-0.433075,13.837036
2019-01-28 23:02:57:257,0.091095,-0.002335,0.149536,0.676346,0.391251,15.151901
2019-01-28 23:02:57:257,0.091095,-0.002335,0.149536,-0.161148,1.860443,13.177811
2019-01-28 23:02:57:257,0.091095,-0.002335,0.149536,-0.730637,2.651276,10.958481
2019-01-28 23:02:57:257,-0.316711,0.064423,0.004578,-0.730637,2.651276,10.958481
2019-01-28 23:02:57:257,-0.316711,0.064423,0.004578,-1.054871,2.932434,10.183197
2019-01-28 23:02:57:257,-0.316711,0.064423,0.004578,-1.027359,3.097534,9.969040
2019-01-28 23:02:57:257,-0.316711,0.064423,0.004578,-0.053467,2.645294,9.284698
2019-01-28 23:02:57:257,-0.316711,0.064423,0.004578,1.117828,1.246689,8.828857
2019-01-28 23:02:57:257,-0.316711,0.064423,0.004578,1.170456,0.071808,9.550308
2019-01-28 23:02:57:257,-0.316711,0.064423,0.004578,0.420319,0.521652,10.071945
2019-01-28 23:02:57:257,-0.316711,0.064423,0.004578,-0.052277,1.750381,8.272537
2019-01-28 23:02:57:257,-0.316711,0.064423,0.004578,0.139160,2.055450,6.050797
2019-01-28 23:02:57:257,-0.316711,0.064423,0.004578,0.669159,1.378296,5.311417
2019-01-28 23:02:57:257,0.333603,0.117935,-0.013077,0.669159,1.378296,5.311417
2019-01-28 23:02:57:257,0.333603,0.117935,-0.013077,-0.224564,1.669022,6.438431
2019-01-28 23:02:57:257,0.333603,0.117935,-0.013077,-1.030945,2.752960,7.199356
2019-01-28 23:02:57:257,0.333603,0.117935,-0.013077,-0.928055,3.154953,6.439636
2019-01-28 23:02:57:257,0.333603,0.117935,-0.013077,0.660797,1.146194,6.421692
2019-01-28 23:02:57:257,0.333603,0.117935,-0.013077,0.760101,-0.405563,8.696060
2019-01-28 23:02:57:257,0.333603,0.117935,-0.013077,-0.328644,0.745392,11.322189
2019-01-28 23:02:57:257,0.333603,0.117935,-0.013077,-0.608612,1.813782,11.563858
2019-01-28 23:02:57:257,0.333603,0.117935,-0.013077,-0.079803,1.417770,10.763458
2019-01-28 23:02:57:257,0.333603,0.117935,-0.013077,-0.350174,2.098541,10.478714
2019-01-28 23:02:57:257,0.333603,0.117935,-0.013077,-0.788071,3.187256,9.568237
2019-01-28 23:02:57:257,-0.281586,-0.018707,0.102249,-0.788071,3.187256,9.568237
2019-01-28 23:02:57:257,-0.281586,-0.018707,0.102249,-0.443512,3.333221,7.755692
2019-01-28 23:02:57:257,-0.281586,-0.018707,0.102249,0.312637,2.181091,6.796158
2019-01-28 23:02:57:257,-0.281586,-0.018707,0.102249,1.085526,0.488159,7.743713
2019-01-28 23:02:57:257,-0.281586,-0.018707,0.102249,1.190796,-0.462997,9.399551
2019-01-28 23:02:57:257,-0.281586,-0.018707,0.102249,0.962296,-0.597000,9.486893
2019-01-28 23:02:57:257,-0.281586,-0.018707,0.102249,0.493301,-0.325409,8.070343
2019-01-28 23:02:57:257,-0.281586,-0.018707,0.102249,-0.274811,0.311096,6.794968
2019-01-28 23:02:57:257,-0.281586,-0.018707,0.102249,-0.819183,1.229935,5.864151
2019-01-28 23:02:57:257,-0.281586,-0.018707,0.102249,-0.786880,1.703720,5.526779
2019-01-28 23:02:57:257,-0.258682,0.204193,-0.144226,-0.786880,1.703720,5.526779
2019-01-28 23:02:57:257,-0.258682,0.204193,-0.144226,-0.797638,1.659454,6.029266
2019-01-28 23:02:57:257,-0.258682,0.204193,-0.144226,-1.450882,2.129639,7.620483
2019-01-28 23:02:57:257,-0.258682,0.204193,-0.144226,-1.674606,2.230133,9.780014
2019-01-28 23:02:57:257,-0.258682,0.204193,-0.144226,-0.094147,0.896133,13.265167
2019-01-28 23:02:57:257,-0.258682,0.204193,-0.144226,0.809143,-0.800385,18.180023
2019-01-28 23:02:57:257,-0.258682,0.204193,-0.144226,0.553116,-0.839859,21.535950
2019-01-28 23:02:57:257,-0.258682,0.204193,-0.144226,-1.114685,1.446487,20.033264
2019-01-28 23:02:57:257,-0.258682,0.204193,-0.144226,-2.397247,3.360748,16.217911
2019-01-28 23:02:57:257,-0.258682,0.204193,-0.144226,-1.347992,2.776901,12.544922
2019-01-28 23:02:57:257,0.535187,-0.121521,0.107803,-1.347992,2.776901,12.544922
2019-01-28 23:02:57:257,0.535187,-0.121521,0.107803,-0.861053,2.455063,10.227478
2019-01-28 23:02:57:257,0.535187,-0.121521,0.107803,-0.435135,2.245682,7.697067
2019-01-28 23:02:57:257,0.535187,-0.121521,0.107803,1.230286,1.105515,4.987183
2019-01-28 23:02:57:257,0.535187,-0.121521,0.107803,1.786621,0.455856,3.413910
2019-01-28 23:02:57:257,0.535187,-0.121521,0.107803,0.806747,0.465439,3.400742
2019-01-28 23:02:57:257,0.535187,-0.121521,0.107803,0.307846,0.643692,4.337540
2019-01-28 23:02:57:257,0.535187,-0.121521,0.107803,0.651215,1.025360,4.353088
2019-01-28 23:02:57:257,0.535187,-0.121521,0.107803,1.217117,1.978897,4.055176
2019-01-28 23:02:57:257,0.535187,-0.121521,0.107803,0.605759,1.338806,5.403534
2019-01-28 23:02:57:257,0.535187,-0.121521,0.107803,-0.670822,0.679581,10.319595
2019-01-28 23:02:57:257,-0.601074,-0.224991,-0.019730,-0.670822,0.679581,10.319595
2019-01-28 23:02:57:257,-0.601074,-0.224991,-0.019730,-0.771317,1.436920,14.380219
2019-01-28 23:02:57:257,-0.601074,-0.224991,-0.019730,0.457397,1.384277,14.827667
2019-01-28 23:02:57:257,-0.601074,-0.224991,-0.019730,0.650024,0.201019,13.811920
2019-01-28 23:02:57:257,-0.601074,-0.224991,-0.019730,-0.358566,0.600632,13.171829
2019-01-28 23:02:57:257,-0.601074,-0.224991,-0.019730,-1.114700,2.208603,11.228867
2019-01-28 23:02:57:257,-0.601074,-0.224991,-0.019730,-0.296356,2.587860,7.902847
2019-01-28 23:02:57:257,-0.601074,-0.224991,-0.019730,-0.073807,2.305511,5.687088
2019-01-28 23:02:57:257,-0.601074,-0.224991,-0.019730,-0.466232,1.434525,6.913406
2019-01-28 23:02:57:257,-0.601074,-0.224991,-0.019730,-0.359756,0.963135,9.958267
2019-01-28 23:02:57:257,-0.200653,-0.134338,0.057358,-0.359756,0.963135,9.958267
2019-01-28 23:02:57:257,-0.200653,-0.134338,0.057358,0.798370,0.235718,12.371429
2019-01-28 23:02:57:257,-0.200653,-0.134338,0.057358,1.870361,-0.861389,13.364456
2019-01-28 23:02:57:257,-0.200653,-0.134338,0.057358,1.917023,-0.644852,13.347702
2019-01-28 23:02:57:257,-0.200653,-0.134338,0.057358,0.672760,1.289764,11.855789
2019-01-28 23:02:57:257,-0.200653,-0.134338,0.057358,-0.316681,3.085571,9.279907
2019-01-28 23:02:57:257,-0.200653,-0.134338,0.057358,-0.082184,3.042496,7.618103
2019-01-28 23:02:57:257,-0.200653,-0.134338,0.057358,1.201569,0.906906,8.526169
2019-01-28 23:02:57:257,-0.200653,-0.134338,0.057358,1.768661,-0.531189,11.061371
2019-01-28 23:02:57:257,-0.200653,-0.134338,0.057358,1.967270,-0.405563,12.872726
2019-01-28 23:02:57:257,-0.200653,-0.134338,0.057358,1.184814,0.233322,10.810120
2019-01-28 23:02:58:258,0.129395,0.086349,-0.174774,1.184814,0.233322,10.810120
2019-01-28 23:02:59:259,0.129395,0.086349,-0.174774,0.393997,0.478592,8.766647
2019-01-28 23:02:59:259,0.129395,0.086349,-0.174774,-0.138428,0.981079,7.962662
2019-01-28 23:02:59:259,0.129395,0.086349,-0.174774,-0.457870,1.430939,7.564255
2019-01-28 23:02:59:259,0.129395,0.086349,-0.174774,-0.171921,1.502716,6.512619
2019-01-28 23:02:59:259,0.129395,0.086349,-0.174774,0.134369,1.574509,5.472931
2019-01-28 23:02:59:259,0.129395,0.086349,-0.174774,-0.088165,1.078003,5.389175
2019-01-28 23:02:59:259,0.129395,0.086349,-0.174774,-0.305908,0.400818,8.004547
2019-01-28 23:02:59:259,0.129395,0.086349,-0.174774,0.106857,-0.096893,10.983597
2019-01-28 23:02:59:259,0.129395,0.086349,-0.174774,0.648819,-0.053818,12.512619
2019-01-28 23:02:59:259,0.121399,0.150421,-0.020340,0.648819,-0.053818,12.512619
2019-01-28 23:02:59:259,0.121399,0.150421,-0.020340,0.465775,0.323059,11.086487
2019-01-28 23:02:59:259,0.121399,0.150421,-0.020340,0.050613,0.882980,9.349304
2019-01-28 23:02:59:259,0.121399,0.150421,-0.020340,-0.406418,1.468018,8.572830
2019-01-28 23:02:59:259,0.121399,0.150421,-0.020340,-0.102524,1.619965,8.459167
2019-01-28 23:02:59:259,0.121399,0.150421,-0.020340,0.511246,0.965530,8.605133
2019-01-28 23:02:59:259,0.121399,0.150421,-0.020340,0.557892,0.153168,9.497665
2019-01-28 23:02:59:259,0.121399,0.150421,-0.020340,0.389206,0.131638,10.666550
2019-01-28 23:02:59:259,0.121399,0.150421,-0.020340,0.275543,0.868622,10.283691
2019-01-28 23:02:59:259,0.121399,0.150421,-0.020340,-0.004425,1.596039,9.019089
2019-01-28 23:02:59:259,0.121399,0.150421,-0.020340,-0.054672,1.678589,8.125381
2019-01-28 23:02:59:259,-0.109695,0.095032,-0.098770,-0.054672,1.678589,8.125381
2019-01-28 23:02:59:259,-0.109695,0.095032,-0.098770,0.239655,1.191650,7.878906
2019-01-28 23:02:59:259,-0.109695,0.095032,-0.098770,0.285126,0.960739,8.359863
2019-01-28 23:02:59:259,-0.109695,0.095032,-0.098770,-0.049881,1.101929,8.865952
2019-01-28 23:02:59:259,-0.109695,0.095032,-0.098770,-0.293945,1.158157,9.512009
2019-01-28 23:02:59:259,-0.109695,0.095032,-0.098770,-0.698349,1.167725,10.383011
2019-01-28 23:02:59:259,-0.109695,0.095032,-0.098770,-0.733032,1.399826,11.222885
2019-01-28 23:02:59:259,-0.109695,0.095032,-0.098770,-0.536819,1.587662,11.380814
2019-01-28 23:02:59:259,-0.109695,0.095032,-0.098770,-0.198242,1.379486,11.055389
2019-01-28 23:02:59:259,-0.109695,0.095032,-0.098770,0.038651,1.070816,10.442825
2019-01-28 23:02:59:259,0.017548,-0.091461,0.032425,0.038651,1.070816,10.442825
2019-01-28 23:02:59:259,0.017548,-0.091461,0.032425,-0.213791,1.299332,10.025284
2019-01-28 23:02:59:259,0.017548,-0.091461,0.032425,-0.558365,1.673813,9.727371
2019-01-28 23:02:59:259,0.017548,-0.091461,0.032425,-0.461441,1.696548,9.251190
2019-01-28 23:02:59:259,0.017548,-0.091461,0.032425,-0.133636,1.261047,8.833649
2019-01-28 23:02:59:259,0.017548,-0.091461,0.032425,0.064987,0.607803,9.105240
2019-01-28 23:02:59:259,0.017548,-0.091461,0.032425,0.232483,0.181885,10.208328
2019-01-28 23:02:59:259,0.017548,-0.091461,0.032425,0.437057,0.172302,10.677322
2019-01-28 23:02:59:259,0.017548,-0.091461,0.032425,-0.073807,0.993042,10.333954
2019-01-28 23:02:59:259,0.017548,-0.091461,0.032425,-0.948380,1.822159,9.781204
2019-01-28 23:02:59:259,-0.063141,-0.194138,0.212448,-0.948380,1.822159,9.781204
2019-01-28 23:02:59:259,-0.063141,-0.194138,0.212448,-0.669632,1.491959,9.373230
2019-01-28 23:02:59:259,-0.063141,-0.194138,0.212448,0.318619,0.580292,9.466553
2019-01-28 23:02:59:259,-0.063141,-0.194138,0.212448,0.294693,0.495346,9.961868
2019-01-28 23:02:59:259,-0.063141,-0.194138,0.212448,-0.155167,1.069611,10.093475
2019-01-28 23:02:59:259,-0.063141,-0.194138,0.212448,-0.271225,1.386658,9.541931
2019-01-28 23:02:59:259,-0.063141,-0.194138,0.212448,-0.091766,1.161743,8.997559
2019-01-28 23:02:59:259,-0.063141,-0.194138,0.212448,-0.298737,0.884171,8.778610
2019-01-28 23:02:59:259,-0.063141,-0.194138,0.212448,0.053009,0.853058,9.756088
2019-01-28 23:02:59:259,-0.063141,-0.194138,0.212448,0.563873,0.890152,11.176224
2019-01-28 23:02:59:259,-0.063141,-0.194138,0.212448,0.134369,0.899719,11.568649
2019-01-28 23:02:59:259,0.148270,0.016724,0.187454,0.134369,0.899719,11.568649
2019-01-28 23:02:59:259,0.148270,0.016724,0.187454,-0.482986,1.284973,10.963257
2019-01-28 23:02:59:259,0.148270,0.016724,0.187454,-0.438721,1.396240,10.396164
2019-01-28 23:02:59:259,0.148270,0.016724,0.187454,-0.256866,1.501526,9.525177
2019-01-28 23:02:59:259,0.148270,0.016724,0.187454,-0.213791,1.672607,8.826477
2019-01-28 23:02:59:259,0.148270,0.016724,0.187454,0.408356,1.121063,8.633850
2019-01-28 23:02:59:259,0.148270,0.016724,0.187454,1.119019,0.229736,9.641235
2019-01-28 23:02:59:259,0.148270,0.016724,0.187454,1.209946,0.123260,10.910629
2019-01-28 23:02:59:259,0.148270,0.016724,0.187454,0.499268,1.034927,11.021881
2019-01-28 23:02:59:259,0.148270,0.016724,0.187454,-0.472214,2.215775,9.632858
2019-01-28 23:02:59:259,0.268555,0.205658,0.042328,-0.472214,2.215775,9.632858
2019-01-28 23:02:59:259,0.268555,0.205658,0.042328,-0.636124,2.695541,8.302444
2019-01-28 23:02:59:259,0.268555,0.205658,0.042328,0.161880,1.619965,7.742523
2019-01-28 23:02:59:259,0.268555,0.205658,0.042328,1.248230,0.562347,8.390976
2019-01-28 23:02:59:259,0.268555,0.205658,0.042328,1.218323,0.350571,9.119598
2019-01-28 23:02:59:259,0.268555,0.205658,0.042328,0.682327,0.975098,9.009521
2019-01-28 23:02:59:259,0.268555,0.205658,0.042328,0.025497,1.362732,7.841827
2019-01-28 23:02:59:259,0.268555,0.205658,0.042328,0.064972,1.373505,6.300842
2019-01-28 23:02:59:259,0.268555,0.205658,0.042328,0.256393,0.953568,5.657181
2019-01-28 23:02:59:259,0.268555,0.205658,0.042328,0.805557,0.242905,6.583191
2019-01-28 23:02:59:259,0.268555,0.205658,0.042328,0.768463,0.078995,8.475922
2019-01-28 23:02:59:259,0.268555,0.205658,0.042328,0.090103,0.510895,10.339935
2019-01-28 23:02:59:259,0.268555,0.205658,0.042328,-0.399231,1.106705,10.831665
2019-01-28 23:02:59:259,0.268555,0.205658,0.042328,-1.163742,1.294540,10.093475
2019-01-28 23:02:59:259,0.268555,0.205658,0.042328,-1.742813,1.326843,10.105438
2019-01-28 23:02:59:259,0.268555,0.205658,0.042328,-1.139816,1.171310,10.667755
2019-01-28 23:02:59:259,0.268555,0.205658,0.042328,-0.456665,0.960739,10.984802
2019-01-28 23:02:59:259,0.268555,0.205658,0.042328,-0.280792,0.671219,11.054184
2019-01-28 23:02:59:259,0.268555,0.205658,0.042328,-0.267639,0.234528,11.115204
2019-01-28 23:02:59:259,0.268555,0.205658,0.042328,-0.124069,0.073013,11.961060
2019-01-28 23:02:59:259,-0.681458,-0.027374,-0.170303,-0.124069,0.073013,11.961060
2019-01-28 23:02:59:259,-0.681458,-0.027374,-0.170303,0.045837,0.032333,12.427673
2019-01-28 23:02:59:259,-0.681458,-0.027374,-0.170303,-0.092957,0.430740,11.791183
2019-01-28 23:02:59:259,-0.681458,-0.027374,-0.170303,-0.170715,0.151978,11.568649
2019-01-28 23:02:59:259,-0.681458,-0.027374,-0.170303,0.256409,-0.087326,11.441833
2019-01-28 23:02:59:259,-0.681458,-0.027374,-0.170303,0.014725,-0.004761,12.092667
2019-01-28 23:02:59:259,-0.681458,-0.027374,-0.170303,0.105652,-0.110046,12.520996
2019-01-28 23:02:59:259,-0.681458,-0.027374,-0.170303,0.522003,-0.356506,11.756485
2019-01-28 23:02:59:259,-0.681458,-0.027374,-0.170303,-0.040314,0.105316,10.802948
2019-01-28 23:02:59:259,-0.681458,-0.027374,-0.170303,-0.683975,0.832733,9.998947
2019-01-28 23:02:59:259,-0.681458,-0.027374,-0.170303,-0.417191,0.951172,9.223679
2019-01-28 23:02:59:259,0.030380,-0.050705,-0.029327,-0.417191,0.951172,9.223679
2019-01-28 23:02:59:259,0.030380,-0.050705,-0.029327,0.105652,0.308701,8.725983
2019-01-28 23:02:59:259,0.030380,-0.050705,-0.029327,0.326996,-0.351730,8.743912
2019-01-28 23:02:59:259,0.030380,-0.050705,-0.029327,0.151123,-0.428299,9.248810
2019-01-28 23:02:59:259,0.030380,-0.050705,-0.029327,-0.037918,-0.232086,9.228470
2019-01-28 23:02:59:259,0.030380,-0.050705,-0.029327,-0.253265,-0.028702,8.552490
2019-01-28 23:02:59:259,0.030380,-0.050705,-0.029327,-0.382492,0.114883,7.585785
2019-01-28 23:02:59:259,0.030380,-0.050705,-0.029327,-0.228149,-0.294296,7.025879
2019-01-28 23:02:59:259,0.030380,-0.050705,-0.029327,0.123596,-0.667572,7.184998
2019-01-28 23:02:59:259,0.030380,-0.050705,-0.029327,-0.017578,-0.148346,7.570236
2019-01-28 23:02:59:259,0.160187,0.098389,-0.035675,-0.017578,-0.148346,7.570236
2019-01-28 23:02:59:259,0.160187,0.098389,-0.035675,-0.283188,0.253662,7.936340
2019-01-28 23:02:59:259,0.160187,0.098389,-0.035675,-0.326248,0.183075,8.521393
2019-01-28 23:02:59:259,0.160187,0.098389,-0.035675,-0.346588,0.223755,9.940323
2019-01-28 23:02:59:259,0.160187,0.098389,-0.035675,-0.229340,0.239304,10.794571
2019-01-28 23:02:59:259,0.160187,0.098389,-0.035675,-0.034332,0.058655,10.947708
2019-01-28 23:02:59:259,0.160187,0.098389,-0.035675,-0.063049,-0.057404,11.186996
2019-01-28 23:02:59:259,0.160187,0.098389,-0.035675,-0.149185,-0.358902,12.254196
2019-01-28 23:02:59:259,0.160187,0.098389,-0.035675,-0.120468,-0.726196,12.209915
2019-01-28 23:02:59:259,0.160187,0.098389,-0.035675,0.376053,-0.600586,10.622284
2019-01-28 23:03:00:30,-0.189529,-0.156143,-0.020828,0.376053,-0.600586,10.622284
2019-01-28 23:03:00:30,-0.189529,-0.156143,-0.020828,0.184616,0.040710,10.379410
2019-01-28 23:03:00:30,-0.189529,-0.156143,-0.020828,-0.512894,0.683182,10.512222
2019-01-28 23:03:00:30,-0.189529,-0.156143,-0.020828,-0.825165,1.045700,10.227478
2019-01-28 23:03:00:30,-0.189529,-0.156143,-0.020828,-0.593048,1.074402,10.463165
2019-01-28 23:03:00:30,-0.189529,-0.156143,-0.020828,-0.140808,0.544388,11.798355
2019-01-28 23:03:00:30,-0.189529,-0.156143,-0.020828,0.530380,-0.588608,12.643021
2019-01-28 23:03:00:30,-0.189529,-0.156143,-0.020828,1.418121,-1.499084,12.510223
2019-01-28 23:03:00:30,-0.189529,-0.156143,-0.020828,1.323608,-1.280136,11.106827
2019-01-28 23:03:00:30,-0.189529,-0.156143,-0.020828,0.690704,-0.573059,8.626678
2019-01-28 23:03:00:30,-0.189529,-0.156143,-0.020828,-0.004425,0.093338,6.232651
2019-01-28 23:03:00:30,0.854370,0.107132,0.000656,-0.004425,0.093338,6.232651
2019-01-28 23:03:00:30,0.854370,0.107132,0.000656,-0.390869,0.752579,4.698853
2019-01-28 23:03:00:30,0.854370,0.107132,0.000656,-0.368134,1.104309,3.874527
2019-01-28 23:03:00:30,0.854370,0.107132,0.000656,0.080536,1.268219,3.616104
2019-01-28 23:03:00:30,0.854370,0.107132,0.000656,-0.140808,1.209595,4.036041
2019-01-28 23:03:00:30,0.854370,0.107132,0.000656,-0.608612,0.942795,6.104630
2019-01-28 23:03:00:30,0.854370,0.107132,0.000656,-0.756973,0.309891,9.410324
2019-01-28 23:03:00:30,0.854370,0.107132,0.000656,-0.357361,-0.254822,12.398956
2019-01-28 23:03:00:30,0.854370,0.107132,0.000656,-0.145599,-0.211746,13.356079
2019-01-28 23:03:00:30,0.854370,0.107132,0.000656,-0.292755,0.248886,13.100052
2019-01-28 23:03:00:30,-0.642365,-0.080460,0.178604,-0.292755,0.248886,13.100052
2019-01-28 23:03:00:30,-0.642365,-0.080460,0.178604,-0.144394,1.079193,12.261368
2019-01-28 23:03:00:30,-0.642365,-0.080460,0.178604,0.041046,1.593643,10.948898
2019-01-28 23:03:00:30,-0.642365,-0.080460,0.178604,0.276749,1.447693,9.620895
2019-01-28 23:03:00:30,-0.642365,-0.080460,0.178604,0.888107,0.735825,8.996368
2019-01-28 23:03:00:30,-0.642365,-0.080460,0.178604,1.186020,0.043106,10.031265
2019-01-28 23:03:00:30,-0.642365,-0.080460,0.178604,1.491104,-0.208160,10.834045
2019-01-28 23:03:00:30,-0.642365,-0.080460,0.178604,1.394196,-0.229691,10.831650
2019-01-28 23:03:00:30,-0.642365,-0.080460,0.178604,1.154907,-0.269165,11.475327
2019-01-28 23:03:00:30,-0.642365,-0.080460,0.178604,0.846237,-0.421112,12.511414
2019-01-28 23:03:00:30,-0.642365,-0.080460,0.178604,0.545929,-0.497696,12.778214
2019-01-28 23:03:00:30,0.025177,-0.170868,0.017838,0.545929,-0.497696,12.778214
2019-01-28 23:03:02:32,0.025177,-0.170868,0.017838,-0.042709,-0.034668,12.054398
2019-01-28 23:03:02:32,0.025177,-0.170868,0.017838,-0.345398,0.866226,10.435638
2019-01-28 23:03:03:33,0.025177,-0.170868,0.017838,-0.394455,1.326843,8.907822
2019-01-28 23:03:03:33,0.025177,-0.170868,0.017838,-0.075012,1.073212,8.181610
2019-01-28 23:03:03:33,0.025177,-0.170868,0.017838,0.626099,0.207016,8.868347
2019-01-28 23:03:03:33,0.025177,-0.170868,0.017838,1.481537,-1.081543,10.270538
2019-01-28 23:03:03:33,0.025177,-0.170868,0.017838,1.599976,-1.673767,10.938141
2019-01-28 23:03:03:33,0.025177,-0.170868,0.017838,0.922806,-0.965485,10.617493
2019-01-28 23:03:03:33,0.025177,-0.170868,0.017838,-0.145599,0.144791,9.222488
2019-01-28 23:03:03:33,0.002518,0.180191,-0.111725,-0.145599,0.144791,9.222488
2019-01-28 23:03:03:33,0.002518,0.180191,-0.111725,-0.628952,0.832733,7.609726
2019-01-28 23:03:03:33,0.002518,0.180191,-0.111725,-0.565536,0.790863,7.101242
2019-01-28 23:03:03:33,0.002518,0.180191,-0.111725,-0.236526,0.520462,7.771240
2019-01-28 23:03:03:33,0.002518,0.180191,-0.111725,0.258789,0.041901,8.614700
2019-01-28 23:03:03:33,0.002518,0.180191,-0.111725,1.209946,-0.893707,9.614899
2019-01-28 23:03:03:33,0.002518,0.180191,-0.111725,0.889297,-1.278946,10.911819
2019-01-28 23:03:03:33,0.002518,0.180191,-0.111725,-0.398041,-0.313446,11.037445
2019-01-28 23:03:03:33,0.002518,0.180191,-0.111725,-1.194855,1.055267,9.322983
2019-01-28 23:03:03:33,0.002518,0.180191,-0.111725,-0.917282,1.365128,8.205536
2019-01-28 23:03:03:33,0.002518,0.180191,-0.111725,-0.191055,0.763336,8.824081
2019-01-28 23:03:03:33,-0.281281,-0.094757,-0.116318,-0.191055,0.763336,8.824081
2019-01-28 23:03:03:33,-0.281281,-0.094757,-0.116318,0.964676,0.056259,10.081497
2019-01-28 23:03:03:33,-0.281281,-0.094757,-0.116318,1.707657,-0.552719,11.347305
2019-01-28 23:03:03:33,-0.281281,-0.094757,-0.116318,1.900269,-0.796799,13.049805
2019-01-28 23:03:03:33,-0.281281,-0.094757,-0.116318,1.272156,-0.498886,14.198364
2019-01-28 23:03:03:33,-0.281281,-0.094757,-0.116318,0.270767,0.069427,13.205338
2019-01-28 23:03:03:33,-0.281281,-0.094757,-0.116318,-0.421967,0.796829,10.910614
2019-01-28 23:03:03:33,-0.281281,-0.094757,-0.116318,-0.503326,1.171310,8.977219
2019-01-28 23:03:03:33,-0.281281,-0.094757,-0.116318,-0.590668,1.234726,7.450607
2019-01-28 23:03:03:33,-0.281281,-0.094757,-0.116318,-0.228149,0.826752,7.169449
2019-01-28 23:03:03:33,0.181625,-0.074173,-0.019363,-0.228149,0.826752,7.169449
2019-01-28 23:03:03:33,0.181625,-0.074173,-0.019363,0.587814,-0.007156,8.625473
2019-01-28 23:03:03:33,0.181625,-0.074173,-0.019363,1.145340,-0.681931,10.466751
2019-01-28 23:03:03:33,0.181625,-0.074173,-0.019363,0.884521,-0.367279,12.580811
2019-01-28 23:03:03:33,0.181625,-0.074173,-0.019363,0.309052,0.193848,13.542725
2019-01-28 23:03:03:33,0.181625,-0.074173,-0.019363,0.181030,0.229736,13.188583
2019-01-28 23:03:03:33,0.181625,-0.074173,-0.019363,0.012344,0.973907,12.142929
2019-01-28 23:03:03:33,0.181625,-0.074173,-0.019363,-0.645691,2.175095,10.380615
2019-01-28 23:03:03:33,0.181625,-0.074173,-0.019363,-0.631332,2.330627,8.681702
2019-01-28 23:03:03:33,0.181625,-0.074173,-0.019363,0.301865,1.005005,8.164856
2019-01-28 23:03:03:33,0.181625,-0.074173,-0.019363,1.055603,-0.183029,9.294266
2019-01-28 23:03:03:33,0.486496,0.024841,0.108841,1.055603,-0.183029,9.294266
2019-01-28 23:03:03:33,0.486496,0.024841,0.108841,1.331985,-0.440262,10.016891
2019-01-28 23:03:03:33,0.486496,0.024841,0.108841,1.040054,-0.056213,9.411514
2019-01-28 23:03:03:33,0.486496,0.024841,0.108841,0.555511,0.795639,8.607529
2019-01-28 23:03:03:33,0.486496,0.024841,0.108841,-0.364548,2.045883,7.744919
2019-01-28 23:03:03:33,0.486496,0.024841,0.108841,-0.276001,2.256454,7.046219
2019-01-28 23:03:03:33,0.486496,0.024841,0.108841,0.990997,1.056458,7.602539
2019-01-28 23:03:03:33,0.486496,0.024841,0.108841,1.305649,0.242905,9.054977
2019-01-28 23:03:03:33,0.486496,0.024841,0.108841,0.861786,0.546783,9.227264
2019-01-28 23:03:03:33,0.486496,0.024841,0.108841,0.463379,0.955948,8.611115
2019-01-28 23:03:03:33,-0.111893,-0.051010,0.087173,0.463379,0.955948,8.611115
2019-01-28 23:03:03:33,-0.111893,-0.051010,0.087173,0.428680,0.818375,8.326370
2019-01-28 23:03:03:33,-0.111893,-0.051010,0.087173,0.391602,0.768127,9.011917
2019-01-28 23:03:03:33,-0.111893,-0.051010,0.087173,0.085312,1.210800,9.683105
2019-01-28 23:03:03:33,-0.111893,-0.051010,0.087173,-0.356171,1.556564,10.119781
2019-01-28 23:03:03:33,-0.111893,-0.051010,0.087173,-0.411194,1.767120,10.552902
2019-01-28 23:03:03:33,-0.111893,-0.051010,0.087173,-0.563141,1.803024,10.905838
2019-01-28 23:03:03:33,-0.111893,-0.051010,0.087173,0.105652,1.337616,11.478912
2019-01-28 23:03:03:33,-0.111893,-0.051010,0.087173,0.734970,0.120865,12.152496
2019-01-28 23:03:03:33,-0.111893,-0.051010,0.087173,1.442047,-0.387619,12.766251
2019-01-28 23:03:03:33,0.137207,0.135834,0.003418,1.442047,-0.387619,12.766251
2019-01-28 23:03:03:33,0.137207,0.135834,0.003418,0.976639,0.329041,11.769638
2019-01-28 23:03:03:33,0.137207,0.135834,0.003418,0.255203,1.232330,9.817093
2019-01-28 23:03:03:33,0.137207,0.135834,0.003418,-0.071411,1.922653,8.207932
2019-01-28 23:03:03:33,0.137207,0.135834,0.003418,-0.145599,2.189453,7.247208
2019-01-28 23:03:03:33,0.137207,0.135834,0.003418,0.134369,1.738419,6.669342
2019-01-28 23:03:03:33,0.137207,0.135834,0.003418,0.721802,0.659241,7.583405
2019-01-28 23:03:03:33,0.137207,0.135834,0.003418,1.181229,-0.021515,9.163849
2019-01-28 23:03:03:33,0.137207,0.135834,0.003418,0.642838,0.403214,9.891281
2019-01-28 23:03:03:33,0.137207,0.135834,0.003418,-0.045090,1.197632,9.827866
2019-01-28 23:03:03:33,0.137207,0.135834,0.003418,-0.095352,1.418976,9.296661
2019-01-28 23:03:03:33,-0.101379,0.102295,-0.103790,-0.095352,1.418976,9.296661
2019-01-28 23:03:03:33,-0.101379,0.102295,-0.103790,0.197769,1.107895,9.567047
2019-01-28 23:03:03:33,-0.101379,0.102295,-0.103790,0.328186,0.893753,10.014511
2019-01-28 23:03:03:33,-0.101379,0.102295,-0.103790,0.459793,0.886566,10.444016
2019-01-28 23:03:03:33,-0.101379,0.102295,-0.103790,0.472961,0.923660,10.166443
2019-01-28 23:03:03:33,-0.101379,0.102295,-0.103790,0.441849,0.875809,9.509628
2019-01-28 23:03:03:33,-0.101379,0.102295,-0.103790,0.084122,0.911682,9.389984
2019-01-28 23:03:03:33,-0.101379,0.102295,-0.103790,0.165482,0.808807,9.513214
2019-01-28 23:03:03:33,-0.101379,0.102295,-0.103790,0.208542,0.662842,9.535934
2019-01-28 23:03:03:33,-0.101379,0.102295,-0.103790,0.024307,0.664032,9.282303
2019-01-28 23:03:03:33,-0.073532,-0.000137,-0.073120,0.024307,0.664032,9.282303
2019-01-28 23:03:03:33,-0.073532,-0.000137,-0.073120,-0.177902,0.851868,9.284698
2019-01-28 23:03:03:33,-0.073532,-0.000137,-0.073120,-0.211395,0.628143,9.983398
2019-01-28 23:03:03:33,-0.073532,-0.000137,-0.073120,0.271957,0.043091,10.641434
2019-01-28 23:03:03:33,-0.073532,-0.000137,-0.073120,0.005157,0.342209,10.651001
2019-01-28 23:03:03:33,-0.073532,-0.000137,-0.073120,-1.068039,1.474014,10.105438
2019-01-28 23:03:03:33,-0.073532,-0.000137,-0.073120,-1.248688,1.809006,9.250000
2019-01-28 23:03:03:33,-0.073532,-0.000137,-0.073120,-0.323868,0.848282,8.818100
2019-01-28 23:03:03:33,-0.073532,-0.000137,-0.073120,-0.048691,0.228546,9.485703
2019-01-28 23:03:03:33,-0.073532,-0.000137,-0.073120,0.021912,0.190262,9.714203
2019-01-28 23:03:03:33,-0.073532,-0.000137,-0.073120,0.435867,-0.183029,9.508423
2019-01-28 23:03:03:33,-0.118729,-0.078568,0.079529,0.435867,-0.183029,9.508423
2019-01-28 23:03:03:33,-0.118729,-0.078568,0.079529,0.543533,-0.324203,9.790787
2019-01-28 23:03:03:33,-0.118729,-0.078568,0.079529,-0.122864,0.570709,9.976227
2019-01-28 23:03:03:33,-0.118729,-0.078568,0.079529,-0.502121,1.203613,9.764465
2019-01-28 23:03:03:33,-0.118729,-0.078568,0.079529,0.224106,0.465424,10.318390
2019-01-28 23:03:03:33,-0.118729,-0.078568,0.079529,0.221710,0.062241,11.231262
2019-01-28 23:03:03:33,-0.118729,-0.078568,0.079529,-0.478210,1.219177,11.494461
2019-01-28 23:03:03:33,-0.118729,-0.078568,0.079529,-0.588272,1.806610,10.522980
2019-01-28 23:03:03:33,-0.118729,-0.078568,0.079529,0.283920,0.893753,9.961868
2019-01-28 23:03:03:33,-0.118729,-0.078568,0.079529,0.839050,-0.230881,10.491882
2019-01-28 23:03:03:33,0.085907,0.081955,0.038788,0.839050,-0.230881,10.491882
2019-01-28 23:03:03:33,0.085907,0.081955,0.038788,1.022110,-0.635284,10.916611
2019-01-28 23:03:03:33,0.085907,0.081955,0.038788,0.417923,-0.346939,9.918793
2019-01-28 23:03:03:33,0.085907,0.081955,0.038788,-0.016388,0.466629,8.638641
2019-01-28 23:03:03:33,0.085907,0.081955,0.038788,-0.606216,1.567322,7.013916
2019-01-28 23:03:03:33,0.085907,0.081955,0.038788,-0.862244,1.965729,5.538727
2019-01-28 23:03:03:33,0.085907,0.081955,0.038788,0.076950,1.225159,5.855789
2019-01-28 23:03:03:33,0.085907,0.081955,0.038788,0.476547,0.360138,7.491272
2019-01-28 23:03:03:33,0.085907,0.081955,0.038788,0.270767,0.247681,9.021484
2019-01-28 23:03:03:33,0.085907,0.081955,0.038788,-0.003220,0.459442,10.143723
2019-01-28 23:03:03:33,0.085907,0.081955,0.038788,0.098480,0.302719,11.085297
2019-01-28 23:03:03:33,0.085907,0.081955,0.038788,0.203766,0.102921,12.236237
2019-01-28 23:03:03:33,0.085907,0.081955,0.038788,-0.113297,0.100525,13.330963
2019-01-28 23:03:03:33,0.085907,0.081955,0.038788,-0.366928,0.370911,13.397964
2019-01-28 23:03:03:33,0.085907,0.081955,0.038788,-0.506912,1.062439,11.386795
2019-01-28 23:03:03:33,0.085907,0.081955,0.038788,-0.819183,1.968124,9.117203
2019-01-28 23:03:03:33,0.085907,0.081955,0.038788,-0.581085,2.021957,7.718597
2019-01-28 23:03:03:33,0.085907,0.081955,0.038788,-0.034332,1.280182,8.095459
2019-01-28 23:03:03:33,0.085907,0.081955,0.038788,0.537567,0.331436,9.660370
2019-01-28 23:03:03:33,0.085907,0.081955,0.038788,0.859390,-0.518021,11.315002
2019-01-28 23:03:03:33,-0.071701,-0.000259,0.016739,0.859390,-0.518021,11.315002
2019-01-28 23:03:03:33,-0.071701,-0.000259,0.016739,1.113037,-1.033676,12.705231
2019-01-28 23:03:03:33,-0.071701,-0.000259,0.016739,0.756500,-0.381638,12.461166
2019-01-28 23:03:03:33,-0.071701,-0.000259,0.016739,-0.067825,0.817169,10.835236
2019-01-28 23:03:03:33,-0.071701,-0.000259,0.016739,-0.632538,1.885574,9.011917
2019-01-28 23:03:03:33,-0.071701,-0.000259,0.016739,-0.957962,2.498138,7.591766
2019-01-28 23:03:03:33,-0.071701,-0.000259,0.016739,-0.893356,2.453873,6.899048
2019-01-28 23:03:03:33,-0.071701,-0.000259,0.016739,-0.390869,1.629532,7.243622
2019-01-28 23:03:03:33,-0.071701,-0.000259,0.016739,0.098480,0.218979,8.879120
2019-01-28 23:03:03:33,-0.071701,-0.000259,0.016739,0.569870,-0.782440,10.965652
2019-01-28 23:03:03:33,0.252487,0.081894,-0.062485,0.569870,-0.782440,10.965652
2019-01-28 23:03:03:33,0.252487,0.081894,-0.062485,0.498077,-0.478546,11.360474
2019-01-28 23:03:03:33,0.252487,0.081894,-0.062485,-0.090561,0.504913,9.880508
2019-01-28 23:03:03:33,0.252487,0.081894,-0.062485,-0.594254,1.618774,8.210327
2019-01-28 23:03:03:33,0.252487,0.081894,-0.062485,-1.136230,2.329437,7.188583
2019-01-28 23:03:03:33,0.252487,0.081894,-0.062485,-1.101532,2.067429,7.407532
2019-01-28 23:03:03:33,0.252487,0.081894,-0.062485,-0.692352,1.214386,8.736740
2019-01-28 23:03:03:33,0.252487,0.081894,-0.062485,-0.253265,0.666428,10.595963
2019-01-28 23:03:03:33,0.252487,0.081894,-0.062485,-0.122864,0.630539,11.646423
2019-01-28 23:03:03:33,0.252487,0.081894,-0.062485,-0.082184,0.763336,11.715805
2019-01-28 23:03:03:33,0.252487,0.081894,-0.062485,0.215729,0.597031,11.414307
2019-01-28 23:03:03:33,-0.094788,-0.034836,0.021194,0.215729,0.597031,11.414307
2019-01-28 23:03:03:33,-0.094788,-0.034836,0.021194,0.280334,0.425949,11.306625
2019-01-28 23:03:03:33,-0.094788,-0.034836,0.021194,0.047028,0.720261,10.670135
2019-01-28 23:03:03:33,-0.094788,-0.034836,0.021194,-0.358566,1.448883,9.657974
2019-01-28 23:03:03:33,-0.094788,-0.034836,0.021194,-0.654068,1.920273,8.833649
2019-01-28 23:03:03:33,-0.094788,-0.034836,0.021194,-0.541611,1.740814,8.955688
2019-01-28 23:03:03:33,-0.094788,-0.034836,0.021194,-0.396851,1.349579,9.681900
2019-01-28 23:03:03:33,-0.094788,-0.034836,0.021194,-0.142014,1.109100,10.142517
2019-01-28 23:03:03:33,-0.094788,-0.034836,0.021194,0.152313,0.866226,9.695068
2019-01-28 23:03:03:33,-0.094788,-0.034836,0.021194,-0.075012,0.887756,9.094467
2019-01-28 23:03:03:33,0.180710,0.011963,0.000183,-0.075012,0.887756,9.094467
2019-01-28 23:03:03:33,0.180710,0.011963,0.000183,-0.340622,1.282578,8.501053
2019-01-28 23:03:03:33,0.180710,0.011963,0.000183,-0.486572,1.604416,7.994965
2019-01-28 23:03:03:33,0.180710,0.011963,0.000183,-0.237732,1.099533,7.981812
2019-01-28 23:03:03:33,0.180710,0.011963,0.000183,-0.010406,0.202225,9.156677
2019-01-28 23:03:03:33,0.180710,0.011963,0.000183,-0.217377,0.215378,10.225082
2019-01-28 23:03:03:33,0.180710,0.011963,0.000183,-0.453079,0.999023,9.392380
2019-01-28 23:03:03:33,0.180710,0.011963,0.000183,-0.744995,1.844894,7.621689
2019-01-28 23:03:03:33,0.180710,0.011963,0.000183,-1.095551,2.315079,7.101242
2019-01-28 23:03:03:33,0.180710,0.011963,0.000183,-1.538223,2.227737,7.884903
2019-01-28 23:03:03:33,-0.248047,-0.070129,0.098831,-1.538223,2.227737,7.884903
2019-01-28 23:03:03:33,-0.248047,-0.070129,0.098831,-1.193649,1.106705,9.724976
2019-01-28 23:03:03:33,-0.248047,-0.070129,0.098831,0.178635,-0.753723,12.290085
2019-01-28 23:03:03:33,-0.248047,-0.070129,0.098831,1.366669,-1.593597,13.567856
2019-01-28 23:03:03:33,-0.248047,-0.070129,0.098831,0.743347,-0.571869,12.505432
2019-01-28 23:03:03:33,-0.248047,-0.070129,0.098831,-0.298737,1.127045,9.900848
2019-01-28 23:03:03:33,-0.248047,-0.070129,0.098831,-1.044098,2.261246,7.381210
2019-01-28 23:03:03:33,-0.248047,-0.070129,0.098831,-1.184082,2.111694,6.822479
2019-01-28 23:03:03:33,-0.248047,-0.070129,0.098831,-0.467438,1.073196,7.764069
2019-01-28 23:03:03:33,-0.248047,-0.070129,0.098831,0.276749,-0.001175,9.281113
2019-01-28 23:03:03:33,-0.248047,-0.070129,0.098831,0.700272,-0.593399,10.605530
2019-01-28 23:03:03:33,-0.073776,-0.054993,0.073975,0.700272,-0.593399,10.605530
2019-01-28 23:03:03:33,-0.073776,-0.054993,0.073975,0.707458,-0.569473,10.915405
2019-01-28 23:03:03:33,-0.073776,-0.054993,0.073975,0.227692,-0.102875,10.312408
2019-01-28 23:03:03:33,-0.073776,-0.054993,0.073975,0.021912,0.198639,9.568253
2019-01-28 23:03:03:33,-0.073776,-0.054993,0.073975,-0.138412,0.311096,9.506027
2019-01-28 23:03:03:33,-0.073776,-0.054993,0.073975,-0.214996,0.516876,9.199753
2019-01-28 23:03:03:33,-0.073776,-0.054993,0.073975,-0.338226,0.568329,8.492676
2019-01-28 23:03:03:33,-0.073776,-0.054993,0.073975,-0.138412,0.215378,9.113617
2019-01-28 23:03:03:33,-0.073776,-0.054993,0.073975,0.366470,-0.180634,10.293274
2019-01-28 23:03:03:33,-0.073776,-0.054993,0.073975,0.453812,-0.665192,10.959671
2019-01-28 23:03:03:33,0.021271,-0.025909,-0.064453,0.453812,-0.665192,10.959671
2019-01-28 23:03:03:33,0.021271,-0.025909,-0.064453,0.285110,-1.116241,11.393967
2019-01-28 23:03:03:33,0.021271,-0.025909,-0.064453,0.085312,-0.628098,10.735947
2019-01-28 23:03:03:33,0.021271,-0.025909,-0.064453,-0.317871,0.555161,9.245224
2019-01-28 23:03:03:33,0.021271,-0.025909,-0.064453,-0.692368,1.442902,7.481705
2019-01-28 23:03:03:33,0.021271,-0.025909,-0.064453,-0.358551,1.081589,6.937332
2019-01-28 23:03:03:33,0.021271,-0.025909,-0.064453,0.315033,0.001221,8.699646
2019-01-28 23:03:03:33,0.021271,-0.025909,-0.064453,0.639252,-0.392410,10.253799
2019-01-28 23:03:03:33,0.021271,-0.025909,-0.064453,0.900070,-0.334976,11.167847
2019-01-28 23:03:03:33,0.021271,-0.025909,-0.064453,0.791199,-0.209351,11.428665
2019-01-28 23:03:04:34,0.055054,-0.046616,0.088562,0.791199,-0.209351,11.428665
2019-01-28 23:03:04:34,0.055054,-0.046616,0.088562,0.422699,-0.220123,11.611725
2019-01-28 23:03:04:34,0.055054,-0.046616,0.088562,0.232468,-0.063385,11.913208
2019-01-28 23:03:04:34,0.055054,-0.046616,0.088562,-0.090561,0.605408,11.380814
2019-01-28 23:03:04:34,0.055054,-0.046616,0.088562,-0.291565,1.227539,9.904434
2019-01-28 23:03:04:34,0.055054,-0.046616,0.088562,-0.162354,1.526642,8.317993
2019-01-28 23:03:04:34,0.055054,-0.046616,0.088562,-0.145599,1.405807,7.291473
2019-01-28 23:03:04:34,0.055054,-0.046616,0.088562,-0.000839,0.815979,7.801147
2019-01-28 23:03:04:34,0.055054,-0.046616,0.088562,0.620117,-0.323013,9.405533
2019-01-28 23:03:04:34,0.055054,-0.046616,0.088562,1.158508,-1.373459,10.846008
2019-01-28 23:03:04:34,0.055054,-0.046616,0.088562,0.666779,-0.958298,11.646408
2019-01-28 23:03:04:34,0.056641,0.100525,0.034317,0.666779,-0.958298,11.646408
2019-01-28 23:03:04:34,0.056641,0.100525,0.034317,-0.164734,0.285965,10.361465
2019-01-28 23:03:04:34,0.056641,0.100525,0.034317,-0.809601,1.369919,8.766647
2019-01-28 23:03:04:34,0.056641,0.100525,0.034317,-0.948380,1.817383,7.679123
2019-01-28 23:03:04:34,0.056641,0.100525,0.034317,-0.766541,1.556564,7.411118
2019-01-28 23:03:04:34,0.056641,0.100525,0.034317,-0.152786,0.887756,8.231857
2019-01-28 23:03:04:34,0.056641,0.100525,0.034317,0.512436,-0.102875,9.297852
2019-01-28 23:03:04:34,0.056641,0.100525,0.034317,1.068771,-1.069565,10.725174
2019-01-28 23:03:04:34,0.056641,0.100525,0.034317,0.928787,-1.190414,11.840225
2019-01-28 23:03:04:34,0.056641,0.100525,0.034317,0.237259,-0.521622,11.810318
2019-01-28 23:03:04:34,-0.101868,0.048294,-0.010025,0.237259,-0.521622,11.810318
2019-01-28 23:03:04:34,-0.101868,0.048294,-0.010025,-0.390854,0.203415,10.592377
2019-01-28 23:03:04:34,-0.101868,0.048294,-0.010025,-0.862244,0.809998,9.783600
2019-01-28 23:03:06:36,-0.101868,0.048294,-0.010025,-1.023758,1.172516,9.212906
2019-01-28 23:03:06:36,-0.101868,0.048294,-0.010025,-0.676804,0.911697,8.917404
2019-01-28 23:03:06:36,-0.101868,0.048294,-0.010025,0.230087,-0.110046,9.466553
2019-01-28 23:03:06:36,-0.101868,0.048294,-0.010025,0.990997,-0.981033,10.324371
2019-01-28 23:03:06:36,-0.101868,0.048294,-0.010025,0.931183,-1.081543,10.779022
2019-01-28 23:03:06:36,-0.101868,0.048294,-0.010025,0.303070,-0.320618,10.396164
2019-01-28 23:03:06:36,-0.101868,0.048294,-0.010025,-0.213791,0.405609,9.301453
2019-01-28 23:03:06:36,-0.101868,0.048294,-0.010025,-0.544006,0.698730,8.765457
2019-01-28 23:03:06:36,-0.044388,-0.049362,-0.043381,-0.544006,0.698730,8.765457
2019-01-28 23:03:06:36,-0.044388,-0.049362,-0.043381,-0.380096,0.275192,9.222473
2019-01-28 23:03:06:36,-0.044388,-0.049362,-0.043381,0.170273,-0.534775,9.983398
2019-01-28 23:03:06:36,-0.044388,-0.049362,-0.043381,0.682327,-1.153320,11.209717
2019-01-28 23:03:06:36,-0.044388,-0.049362,-0.043381,0.533981,-0.770477,11.632050
2019-01-28 23:03:06:36,-0.044388,-0.049362,-0.043381,0.133179,0.031128,10.615097
2019-01-28 23:03:06:36,-0.044388,-0.049362,-0.043381,-0.374115,0.522858,9.553894
2019-01-28 23:03:06:36,-0.044388,-0.049362,-0.043381,-0.396835,0.279984,9.118393
2019-01-28 23:03:06:36,-0.044388,-0.049362,-0.043381,-0.092957,-0.034683,9.133957
2019-01-28 23:03:06:36,-0.044388,-0.049362,-0.043381,-0.025955,-0.187820,9.425873
2019-01-28 23:03:06:36,0.165375,0.127350,-0.060349,-0.025955,-0.187820,9.425873
2019-01-28 23:03:06:36,0.165375,0.127350,-0.060349,0.078140,-0.562286,9.643616
2019-01-28 23:03:06:36,0.165375,0.127350,-0.060349,-0.082184,-0.847046,10.147308
2019-01-28 23:03:06:36,0.165375,0.127350,-0.060349,-0.335831,-0.987030,11.063766
2019-01-28 23:03:06:36,0.165375,0.127350,-0.060349,-0.338226,-0.518036,10.390182
2019-01-28 23:03:06:36,0.165375,0.127350,-0.060349,0.111633,-0.308655,9.451004
2019-01-28 23:03:06:36,0.165375,0.127350,-0.060349,-0.299942,-0.254822,8.864761
2019-01-28 23:03:06:36,0.165375,0.127350,-0.060349,-0.632538,0.020370,8.871933
2019-01-28 23:03:06:36,0.165375,0.127350,-0.060349,-1.164948,0.575500,9.136337
2019-01-28 23:03:06:36,0.165375,0.127350,-0.060349,-1.017792,0.885376,8.961670
2019-01-28 23:03:06:36,0.165375,0.127350,-0.060349,-0.734222,0.431931,9.233246
2019-01-28 23:03:06:36,-0.091431,-0.117294,0.243958,-0.734222,0.431931,9.233246
2019-01-28 23:03:06:36,-0.091431,-0.117294,0.243958,-0.326263,-0.395996,10.661774
2019-01-28 23:03:06:36,-0.091431,-0.117294,0.243958,0.001572,-0.692703,11.510025
2019-01-28 23:03:06:36,-0.091431,-0.117294,0.243958,-0.194656,-0.080139,11.554291
2019-01-28 23:03:06:36,-0.091431,-0.117294,0.243958,-0.729446,0.575500,11.166656
2019-01-28 23:03:06:36,-0.091431,-0.117294,0.243958,-0.777298,1.277786,9.753693
2019-01-28 23:03:06:36,-0.091431,-0.117294,0.243958,-0.869431,1.722855,8.588394
2019-01-28 23:03:06:36,-0.091431,-0.117294,0.243958,-0.808411,1.619965,7.445816
2019-01-28 23:03:06:36,-0.091431,-0.117294,0.243958,-0.083389,0.757355,7.793976
2019-01-28 23:03:06:36,-0.091431,-0.117294,0.243958,0.847427,-0.623306,9.327774
2019-01-28 23:03:06:36,-0.100037,0.021851,0.164734,0.847427,-0.623306,9.327774
2019-01-28 23:03:06:36,-0.100037,0.021851,0.164734,1.396576,-1.923813,11.017105
2019-01-28 23:03:06:36,-0.100037,0.021851,0.164734,1.162079,-2.445450,11.795959
2019-01-28 23:03:06:36,-0.100037,0.021851,0.164734,0.355713,-2.005157,11.644012
2019-01-28 23:03:06:36,-0.100037,0.021851,0.164734,-0.369324,-0.672363,10.071930
2019-01-28 23:03:06:36,-0.100037,0.021851,0.164734,-1.247498,0.933228,8.175629
2019-01-28 23:03:06:36,-0.100037,0.021851,0.164734,-1.944992,1.908295,6.719589
2019-01-28 23:03:06:36,-0.100037,0.021851,0.164734,-1.838516,1.977692,6.352295
2019-01-28 23:03:06:36,-0.100037,0.021851,0.164734,-0.853882,1.186874,7.486496
2019-01-28 23:03:06:36,-0.100037,0.021851,0.164734,0.417923,-0.092102,9.139923
2019-01-28 23:03:06:36,-0.083542,-0.030746,0.103775,0.417923,-0.092102,9.139923
2019-01-28 23:03:06:36,-0.083542,-0.030746,0.103775,1.440857,-1.415344,10.655792
2019-01-28 23:03:06:36,-0.083542,-0.030746,0.103775,1.450424,-2.135574,11.471741
2019-01-28 23:03:06:36,-0.083542,-0.030746,0.103775,0.989807,-1.930984,11.935944
2019-01-28 23:03:06:36,-0.083542,-0.030746,0.103775,0.267166,-0.920013,10.776627
2019-01-28 23:03:06:36,-0.083542,-0.030746,0.103775,-0.616974,0.490555,9.007126
2019-01-28 23:03:06:36,-0.083542,-0.030746,0.103775,-1.184082,1.183273,7.936340
2019-01-28 23:03:06:36,-0.083542,-0.030746,0.103775,-1.018982,0.701126,8.097855
