Timestamp,Gx,Gy,Gz,Ax,Ay,Az
2019-01-23 23:03:58,0.064957,0.283463,-0.160980,0.000000,0.000000,0.000000
2019-01-23 23:04:01,0.064957,0.283463,-0.160980,0.191620,3.867020,11.542938
2019-01-23 23:04:01,0.064957,0.283463,-0.160980,0.737183,3.733017,10.061783
2019-01-23 23:04:02,0.064957,0.283463,-0.160980,1.794815,3.675598,8.338943
2019-01-23 23:04:02,0.064957,0.283463,-0.160980,3.010376,3.265213,8.058990
2019-01-23 23:04:02,0.064957,0.283463,-0.160980,2.682556,2.682571,8.711029
2019-01-23 23:04:02,0.064957,0.283463,-0.160980,1.512466,2.659836,8.781616
2019-01-23 23:04:02,0.064957,0.283463,-0.160980,0.255020,3.042679,8.726593
2019-01-23 23:04:02,0.064957,0.283463,-0.160980,-0.196030,3.144379,9.735153
2019-01-23 23:04:02,0.064957,0.283463,-0.160980,-0.042877,2.598816,10.163467
2019-01-23 23:04:02,0.064957,0.283463,-0.160980,-0.236694,2.543777,9.286499
2019-01-23 23:04:02,0.064957,0.283463,-0.160980,0.719238,2.862030,9.336761
2019-01-23 23:04:02,0.064957,0.283463,-0.160980,1.587830,2.669418,9.238647
2019-01-23 23:04:02,0.064957,0.283463,-0.160980,1.085342,2.774689,9.315216
2019-01-23 23:04:02,0.064957,0.283463,-0.160980,0.391418,3.072601,9.180023
2019-01-23 23:04:02,0.064957,0.283463,-0.160980,-0.032120,2.906296,8.923996
2019-01-23 23:04:02,0.064957,0.283463,-0.160980,-0.777481,3.051056,9.061584
2019-01-23 23:04:02,0.064957,0.283463,-0.160980,-1.415176,3.248474,9.322403
2019-01-23 23:04:02,0.064957,0.283463,-0.160980,-1.245285,3.153961,10.356094
2019-01-23 23:04:02,0.064957,0.283463,-0.160980,-0.470001,3.078583,10.366867
2019-01-23 23:04:02,0.064957,0.283463,-0.160980,-0.029724,2.854843,10.051010
2019-01-23 23:04:02,0.064957,0.283463,-0.160980,0.505081,2.841690,9.973251
2019-01-23 23:04:02,0.064957,0.283463,-0.160980,1.026718,3.000809,9.962479
2019-01-23 23:04:02,0.064957,0.283463,-0.160980,1.543564,2.818954,10.122803
2019-01-23 23:04:02,0.064957,0.283463,-0.160980,1.297104,2.760345,9.905045
2019-01-23 23:04:02,0.064957,0.283463,-0.160980,0.430908,2.681366,9.611923
2019-01-23 23:04:02,0.064957,0.283463,-0.160980,-0.205597,2.651459,9.105850
2019-01-23 23:04:02,0.064957,0.283463,-0.160980,0.024124,2.667023,8.795975
2019-01-23 23:04:02,0.064957,0.283463,-0.160980,0.348358,2.717270,8.807938
2019-01-23 23:04:02,0.064957,0.283463,-0.160980,-0.174500,2.833313,8.555496
2019-01-23 23:04:02,0.064957,0.283463,-0.160980,-0.371887,2.927826,8.032669
2019-01-23 23:04:02,0.064957,0.283463,-0.160980,0.113861,2.915878,8.123596
2019-01-23 23:04:02,0.064957,0.283463,-0.160980,0.082748,2.744781,8.465775
2019-01-23 23:04:02,0.064957,0.283463,-0.160980,-0.819351,3.029526,9.132172
2019-01-23 23:04:02,0.064957,0.283463,-0.160980,-1.022751,3.223343,9.823700
2019-01-23 23:04:02,0.064957,0.283463,-0.160980,-0.397018,3.101318,9.724396
2019-01-23 23:04:02,0.064957,0.283463,-0.160980,0.347153,2.945786,9.530579
2019-01-23 23:04:02,0.064957,0.283463,-0.160980,0.690521,2.747177,9.866776
2019-01-23 23:04:02,0.064957,0.283463,-0.160980,0.551743,2.833313,10.723404
2019-01-23 23:04:02,0.064957,0.283463,-0.160980,0.234695,2.664612,11.480728
2019-01-23 23:04:02,0.064957,0.283463,-0.160980,-0.044083,2.543777,11.042831
2019-01-23 23:04:02,0.064957,0.283463,-0.160980,0.247849,2.482758,9.890686
2019-01-23 23:04:02,0.064957,0.283463,-0.160980,0.905869,2.653854,9.238647
2019-01-23 23:04:02,0.064957,0.283463,-0.160980,0.363907,2.823746,9.085510
2019-01-23 23:04:02,0.064957,0.283463,-0.160980,-0.297714,2.858444,9.040039
2019-01-23 23:04:02,0.064957,0.283463,-0.160980,-0.142181,3.002014,8.932373
2019-01-23 23:04:02,0.064957,0.283463,-0.160980,0.156921,3.177887,8.883316
2019-01-23 23:04:02,0.064957,0.283463,-0.160980,0.180847,3.264023,8.538742
2019-01-23 23:04:02,0.064957,0.283463,-0.160980,-0.081177,3.468613,8.713425
2019-01-23 23:04:02,0.064957,0.283463,-0.160980,-0.120651,3.256851,8.616516
2019-01-23 23:04:02,0.064957,0.283463,-0.160980,0.048050,3.095337,8.749313
2019-01-23 23:04:02,0.064957,0.283463,-0.160980,0.153336,2.949371,9.506638
2019-01-23 23:04:02,0.064957,0.283463,-0.160980,0.001389,2.425339,10.511627
2019-01-23 23:04:02,0.064957,0.283463,-0.160980,0.094711,2.140594,10.269958
2019-01-23 23:04:02,0.064957,0.283463,-0.160980,-0.249863,2.164520,10.408737
2019-01-23 23:04:02,0.064957,0.283463,-0.160980,-0.845673,2.340393,10.884918
2019-01-23 23:04:02,0.064957,0.283463,-0.160980,-1.053848,2.418152,10.759277
2019-01-23 23:04:02,0.064957,0.283463,-0.160980,-0.844482,2.633514,10.372849
2019-01-23 23:04:02,0.064957,0.283463,-0.160980,-0.257050,2.621552,10.354904
2019-01-23 23:04:02,0.064957,0.283463,-0.160980,-0.048859,2.402603,10.016312
2019-01-23 23:04:02,0.064957,0.283463,-0.160980,-0.942581,2.677780,8.465775
2019-01-23 23:04:02,0.064957,0.283463,-0.160980,-1.295532,3.179077,7.252609
2019-01-23 23:04:02,0.064957,0.283463,-0.160980,-0.948563,2.992447,6.995377
2019-01-23 23:04:02,0.064957,0.283463,-0.160980,-0.642288,2.318863,7.418900
2019-01-23 23:04:02,0.064957,0.283463,-0.160980,-0.565720,1.758942,8.216919
2019-01-23 23:04:02,0.064957,0.283463,-0.160980,-1.150757,1.729019,8.658386
2019-01-23 23:04:02,0.064957,0.283463,-0.160980,-1.256042,1.821152,10.123993
2019-01-23 23:04:02,0.064957,0.283463,-0.160980,-1.333817,1.481369,10.764069
2019-01-23 23:04:02,0.064957,0.283463,-0.160980,-0.545380,1.457443,9.877533
2019-01-23 23:04:02,0.064957,0.283463,-0.160980,0.420135,1.961136,8.769653
2019-01-23 23:04:02,0.064957,0.283463,-0.160980,0.747955,2.229126,8.784012
2019-01-23 23:04:02,0.064957,0.283463,-0.160980,-0.009384,2.176483,9.345123
2019-01-23 23:04:02,0.064957,0.283463,-0.160980,-0.779877,1.873795,9.515015
2019-01-23 23:04:02,0.064957,0.283463,-0.160980,-0.840881,1.645279,9.779419
2019-01-23 23:04:02,0.064957,0.283463,-0.160980,-0.284561,1.682373,10.668365
2019-01-23 23:04:02,0.064957,0.283463,-0.160980,-0.270203,1.325836,11.552505
2019-01-23 23:04:02,0.064957,0.283463,-0.160980,-1.101700,1.133209,11.191193
2019-01-23 23:04:02,0.064957,0.283463,-0.160980,-1.600616,1.621353,10.366867
2019-01-23 23:04:02,0.064957,0.283463,-0.160980,-1.574295,2.378677,10.122787
2019-01-23 23:04:03,0.064957,0.283463,-0.160980,-1.406784,2.346375,9.822495
2019-01-23 23:04:03,0.064957,0.283463,-0.160980,-1.067017,1.791245,9.920609
2019-01-23 23:04:03,0.064957,0.283463,-0.160980,-0.903107,1.511276,9.970856
2019-01-23 23:04:03,0.064957,0.283463,-0.160980,-0.242691,1.699127,9.911026
2019-01-23 23:04:03,0.064957,0.283463,-0.160980,-0.516663,1.634506,8.676331
2019-01-23 23:04:03,0.064957,0.283463,-0.160980,0.058823,1.700317,7.904648
2019-01-23 23:04:03,0.064957,0.283463,-0.160980,0.519440,1.666809,7.948914
2019-01-23 23:04:03,0.064957,0.283463,-0.160980,0.415359,1.408386,8.772049
2019-01-23 23:04:03,0.064957,0.283463,-0.160980,-0.612381,1.152359,9.675339
2019-01-23 23:04:03,0.064957,0.283463,-0.160980,-0.777481,0.879578,10.121597
2019-01-23 23:04:03,0.064957,0.283463,-0.160980,-0.351563,1.011185,10.036652
2019-01-23 23:04:03,0.064957,0.283463,-0.160980,-0.279770,1.190643,10.064178
2019-01-23 23:04:03,0.064957,0.283463,-0.160980,-0.840881,1.306702,9.261383
2019-01-23 23:04:03,0.064957,0.283463,-0.160980,-0.864822,1.428726,9.103455
2019-01-23 23:04:03,0.064957,0.283463,-0.160980,-0.936600,1.352158,9.626282
2019-01-23 23:04:03,0.064957,0.283463,-0.160980,-0.927032,1.091339,9.163269
2019-01-23 23:04:03,0.064957,0.283463,-0.160980,-0.229523,1.534012,9.783020
2019-01-23 23:04:03,0.064957,0.283463,-0.160980,-1.669998,1.370102,11.362274
2019-01-23 23:04:03,0.064957,0.283463,-0.160980,-1.737000,0.853256,10.417114
2019-01-23 23:04:03,0.064957,0.283463,-0.160980,-0.575287,1.063828,8.627289
2019-01-23 23:04:03,0.064957,0.283463,-0.160980,0.028915,1.385651,8.395172
2019-01-23 23:04:03,0.064957,0.283463,-0.160980,-0.649475,1.404800,9.483917
2019-01-23 23:04:03,0.064957,0.283463,-0.160980,-1.588654,1.158340,10.262772
2019-01-23 23:04:03,0.064957,0.283463,-0.160980,-1.396027,1.218155,10.278320
2019-01-23 23:04:03,0.064957,0.283463,-0.160980,-0.888748,0.929825,10.375244
2019-01-23 23:04:03,0.064957,0.283463,-0.160980,-0.276184,0.846069,9.686111
2019-01-23 23:04:03,0.064957,0.283463,-0.160980,0.027710,1.063828,8.781616
2019-01-23 23:04:03,0.064957,0.283463,-0.160980,0.345963,1.133209,9.128586
2019-01-23 23:04:03,0.064957,0.283463,-0.160980,0.020538,0.624741,9.573639
2019-01-23 23:04:03,0.064957,0.283463,-0.160980,-0.810974,0.379486,9.754303
2019-01-23 23:04:03,0.064957,0.283463,-0.160980,-1.794434,0.221558,10.510437
2019-01-23 23:04:03,0.064957,0.283463,-0.160980,-2.099518,0.144974,11.344330
2019-01-23 23:04:03,0.064957,0.283463,-0.160980,-2.319656,0.207199,10.661179
2019-01-23 23:04:03,0.064957,0.283463,-0.160980,-2.373489,0.487152,9.163269
2019-01-23 23:04:03,0.064957,0.283463,-0.160980,-2.274200,0.880783,9.330780
2019-01-23 23:04:03,0.064957,0.283463,-0.160980,-1.942795,0.898712,9.640640
2019-01-23 23:04:03,0.064957,0.283463,-0.160980,-1.343384,0.657043,9.954102
2019-01-23 23:04:03,0.064957,0.283463,-0.160980,-1.472595,0.521851,10.100067
2019-01-23 23:04:03,0.064957,0.283463,-0.160980,-1.344589,0.006195,10.150314
2019-01-23 23:04:03,0.064957,0.283463,-0.160980,-0.714066,-0.379059,9.924194
2019-01-23 23:04:03,0.064957,0.283463,-0.160980,-0.325241,-0.397003,10.316620
2019-01-23 23:04:03,0.064957,0.283463,-0.160980,-0.927032,-0.283340,10.399170
2019-01-23 23:04:03,0.064957,0.283463,-0.160980,-1.441483,-0.099091,10.360886
2019-01-23 23:04:03,0.064957,0.283463,-0.160980,-1.539597,-0.139771,10.173050
2019-01-23 23:04:03,0.064957,0.283463,-0.160980,-1.826736,0.450073,9.918213
2019-01-23 23:04:03,0.064957,0.283463,-0.160980,-1.555145,0.613983,10.232864
2019-01-23 23:04:03,0.064957,0.283463,-0.160980,-1.498917,0.825745,10.054596
2019-01-23 23:04:03,0.064957,0.283463,-0.160980,-0.767914,0.917862,9.987610
2019-01-23 23:04:03,0.064957,0.283463,-0.160980,-0.990433,1.287552,10.326187
2019-01-23 23:04:03,0.064957,0.283463,-0.160980,-0.601608,1.171509,9.765076
2019-01-23 23:04:03,0.064957,0.283463,-0.160980,-0.113464,1.023148,9.424088
2019-01-23 23:04:03,0.064957,0.283463,-0.160980,-0.101517,0.841293,9.644226
2019-01-23 23:04:03,0.064957,0.283463,-0.160980,-0.692535,0.625931,9.951706
2019-01-23 23:04:03,0.064957,0.283463,-0.160980,-1.169907,0.173691,10.049820
2019-01-23 23:04:03,0.064957,0.283463,-0.160980,-1.302704,-0.379059,10.095276
2019-01-23 23:04:03,0.064957,0.283463,-0.160980,-0.970093,-0.430511,10.217316
2019-01-23 23:04:03,0.064957,0.283463,-0.160980,-0.815765,-0.039276,9.585617
2019-01-23 23:04:03,0.064957,0.283463,-0.160980,-0.976089,0.274185,8.444229
2019-01-23 23:04:03,0.064957,0.283463,-0.160980,-1.192627,0.521851,8.950317
2019-01-23 23:04:03,0.064957,0.283463,-0.160980,-1.872192,0.905899,9.834457
2019-01-23 23:04:03,0.064957,0.283463,-0.160980,-2.685760,1.133209,10.351318
2019-01-23 23:04:03,0.064957,0.283463,-0.160980,-2.771896,0.933411,10.760483
2019-01-23 23:04:03,0.064957,0.283463,-0.160980,-2.850861,0.408188,9.626282
2019-01-23 23:04:03,0.064957,0.283463,-0.160980,-1.935608,0.848480,9.583206
2019-01-23 23:04:03,0.064957,0.283463,-0.160980,1.063797,2.189651,9.501862
2019-01-23 23:04:03,0.064957,0.283463,-0.160980,-0.388641,0.627136,9.519806
2019-01-23 23:04:03,0.064957,0.283463,-0.160980,-2.001404,-0.282150,9.798569
2019-01-23 23:04:03,0.064957,0.283463,-0.160980,-2.466812,-0.600388,9.821304
2019-01-23 23:04:03,0.064957,0.283463,-0.160980,-1.911682,-0.554932,9.587997
2019-01-23 23:04:03,0.064957,0.283463,-0.160980,-0.866013,0.140198,9.785416
2019-01-23 23:04:03,0.064957,0.283463,-0.160980,-0.838501,0.170105,9.824890
2019-01-23 23:04:03,0.064957,0.283463,-0.160980,-1.262024,-0.277359,9.427689
2019-01-23 23:04:03,0.064957,0.283463,-0.160980,-1.421143,-0.595612,9.428879
2019-01-23 23:04:03,0.064957,0.283463,-0.160980,-2.092346,-0.697311,9.901459
2019-01-23 23:04:03,0.064957,0.283463,-0.160980,-2.950165,-0.271378,9.329575
2019-01-23 23:04:03,0.064957,0.283463,-0.160980,-3.049469,0.384262,8.816315
2019-01-23 23:04:03,0.064957,0.283463,-0.160980,-2.137802,0.814972,8.862976
2019-01-23 23:04:03,0.064957,0.283463,-0.160980,-2.061234,0.968109,9.187210
2019-01-23 23:04:03,0.064957,0.283463,-0.160980,-0.906693,0.903503,9.823700
2019-01-23 23:04:03,0.064957,0.283463,-0.160980,-1.630524,0.808990,10.686310
2019-01-23 23:04:03,0.064957,0.283463,-0.160980,-2.039688,0.768311,10.854996
2019-01-23 23:04:03,0.064957,0.283463,-0.160980,-1.819550,0.854446,9.765076
2019-01-23 23:04:03,0.064957,0.283463,-0.160980,-1.172287,0.575684,8.683517
2019-01-23 23:04:03,0.064957,0.283463,-0.160980,-1.156738,0.387848,9.146530
2019-01-23 23:04:03,0.064957,0.283463,-0.160980,-1.619751,0.150955,9.895477
2019-01-23 23:04:03,0.064957,0.283463,-0.160980,-2.000214,0.118668,10.402756
2019-01-23 23:04:03,0.064957,0.283463,-0.160980,-2.412979,0.245483,9.932571
2019-01-23 23:04:03,0.064957,0.283463,-0.160980,-1.759735,0.557739,9.660980
2019-01-23 23:04:03,0.064957,0.283463,-0.160980,-1.126831,0.590042,9.558090
2019-01-23 23:04:03,0.064957,0.283463,-0.160980,-1.069397,0.642685,9.783020
2019-01-23 23:04:03,0.064957,0.283463,-0.160980,-1.564728,0.862823,9.516220
2019-01-23 23:04:03,0.064957,0.283463,-0.160980,-2.408188,1.645279,8.301849
2019-01-23 23:04:03,0.064957,0.283463,-0.160980,-2.915466,2.401413,7.470352
2019-01-23 23:04:03,0.064957,0.283463,-0.160980,-2.530228,2.036514,7.304047
2019-01-23 23:04:03,0.064957,0.283463,-0.160980,0.031311,1.846283,9.473145
2019-01-23 23:04:03,0.064957,0.283463,-0.160980,-0.474792,1.614166,12.485718
2019-01-23 23:04:03,0.064957,0.283463,-0.160980,-1.130417,1.590240,12.460587
2019-01-23 23:04:03,0.064957,0.283463,-0.160980,0.421326,1.545975,11.345535
2019-01-23 23:04:03,0.064957,0.283463,-0.160980,0.557724,0.801819,10.437454
2019-01-23 23:04:03,0.064957,0.283463,-0.160980,1.338974,0.356735,10.189804
2019-01-23 23:04:03,0.064957,0.283463,-0.160980,0.996796,0.077972,8.762466
2019-01-23 23:04:03,0.064957,0.283463,-0.160980,-0.826538,0.868805,9.422897
2019-01-23 23:04:03,0.064957,0.283463,-0.160980,-2.392639,1.255249,11.040436
2019-01-23 23:04:03,0.064957,0.283463,-0.160980,-3.452652,0.471603,10.480530
2019-01-23 23:04:03,0.064957,0.283463,-0.160980,-3.888153,0.557739,7.586395
2019-01-23 23:04:03,0.064957,0.283463,-0.160980,-1.684357,2.023346,6.484512
2019-01-23 23:04:03,0.064957,0.283463,-0.160980,-0.429321,2.840500,7.211929
2019-01-23 23:04:03,0.064957,0.283463,-0.160980,-1.436707,2.265015,9.485107
2019-01-23 23:04:03,0.064957,0.283463,-0.160980,-2.488358,1.679977,12.175842
2019-01-23 23:04:03,0.064957,0.283463,-0.160980,-3.134415,1.496933,11.574051
2019-01-23 23:04:03,0.064957,0.283463,-0.160980,1.030304,-0.075165,9.424088
2019-01-23 23:04:03,0.064957,0.283463,-0.160980,4.559723,1.501709,9.867966
2019-01-23 23:04:03,0.064957,0.283463,-0.160980,1.210968,1.492142,11.295273
2019-01-23 23:04:03,0.064957,0.283463,-0.160980,-3.067413,0.249069,11.479523
2019-01-23 23:04:03,0.064957,0.283463,-0.160980,-1.926041,1.331818,9.314026
2019-01-23 23:04:03,0.064957,0.283463,-0.160980,8.122635,1.574692,5.653000
2019-01-23 23:04:04,0.064957,0.283463,-0.160980,-2.054047,0.686951,8.259995
2019-01-23 23:04:04,0.064957,0.283463,-0.160980,-4.152557,2.058044,9.201553
2019-01-23 23:04:04,0.064957,0.283463,-0.160980,-4.924240,2.059235,8.136749
2019-01-23 23:04:04,0.064957,0.283463,-0.160980,-3.221741,2.355942,9.281723
2019-01-23 23:04:04,0.064957,0.283463,-0.160980,-2.223938,2.577286,9.597565
2019-01-23 23:04:04,0.064957,0.283463,-0.160980,-1.655640,2.413376,8.551910
2019-01-23 23:04:04,0.064957,0.283463,-0.160980,-1.939194,2.554550,9.126190
2019-01-23 23:04:04,0.064957,0.283463,-0.160980,-1.325439,1.760132,9.982819
2019-01-23 23:04:04,0.064957,0.283463,-0.160980,-0.913864,0.232315,9.848816
2019-01-23 23:04:04,0.064957,0.283463,-0.160980,0.323227,0.755142,10.078522
2019-01-23 23:04:04,0.064957,0.283463,-0.160980,0.166489,0.162918,10.576233
2019-01-23 23:04:04,0.064957,0.283463,-0.160980,-0.169708,0.121048,11.438858
2019-01-23 23:04:04,0.064957,0.283463,-0.160980,-1.644882,0.624741,10.285507
2019-01-23 23:04:04,0.064957,0.283463,-0.160980,-2.179672,1.458633,10.324997
2019-01-23 23:04:04,0.064957,0.283463,-0.160980,-2.426132,2.026932,9.876343
2019-01-23 23:04:04,-0.354767,-0.207596,0.304855,-2.426132,2.026932,9.876343
2019-01-23 23:04:04,-0.354767,-0.207596,0.304855,-1.811172,1.947968,10.118011
2019-01-23 23:04:04,-0.354767,-0.207596,0.304855,-0.988052,1.606995,9.895477
2019-01-23 23:04:04,-0.354767,-0.207596,0.304855,-0.377884,1.530426,9.503052
2019-01-23 23:04:04,-0.354767,-0.207596,0.304855,-0.318054,1.505295,8.957489
2019-01-23 23:04:04,-0.354767,-0.207596,0.304855,-0.304901,1.236099,9.242233
2019-01-23 23:04:04,-0.354767,-0.207596,0.304855,-0.059631,0.799423,9.410934
2019-01-23 23:04:04,-0.354767,-0.207596,0.304855,-0.452057,0.602005,9.477936
2019-01-23 23:04:04,-0.354767,-0.207596,0.304855,-0.788254,0.508698,9.915817
2019-01-23 23:04:04,-0.354767,-0.207596,0.304855,-0.710480,0.709686,9.741135
2019-01-23 23:04:04,-0.354767,-0.207596,0.304855,-0.514267,1.111679,9.446823
2019-01-23 23:04:04,-0.130569,-0.008453,0.126236,-0.514267,1.111679,9.446823
2019-01-23 23:04:04,-0.130569,-0.008453,0.126236,-0.533417,1.439499,9.966064
2019-01-23 23:04:04,-0.130569,-0.008453,0.126236,-0.720047,1.517258,11.033264
2019-01-23 23:04:04,-0.130569,-0.008453,0.126236,-0.668610,1.450272,11.356293
2019-01-23 23:04:04,-0.130569,-0.008453,0.126236,-0.686554,1.250473,11.012924
2019-01-23 23:04:04,-0.130569,-0.008453,0.126236,-0.443680,1.069809,10.522400
2019-01-23 23:04:04,-0.130569,-0.008453,0.126236,-0.046478,0.877182,9.479126
2019-01-23 23:04:04,-0.130569,-0.008453,0.126236,-0.173294,0.635498,9.395386
2019-01-23 23:04:04,-0.130569,-0.008453,0.126236,-0.570496,0.377075,10.109634
2019-01-23 23:04:04,-0.130569,-0.008453,0.126236,-0.338394,0.140198,10.308243
2019-01-23 23:04:04,0.338120,0.152557,-0.043320,-0.338394,0.140198,10.308243
2019-01-23 23:04:04,0.338120,0.152557,-0.043320,-0.106293,0.430923,9.680130
2019-01-23 23:04:04,0.338120,0.152557,-0.043320,-0.642288,1.097321,8.988602
2019-01-23 23:04:04,0.338120,0.152557,-0.043320,-1.343384,1.912079,8.699066
2019-01-23 23:04:04,0.338120,0.152557,-0.043320,-1.819550,2.322449,9.510239
2019-01-23 23:04:04,0.338120,0.152557,-0.043320,-1.734604,2.352356,10.275940
2019-01-23 23:04:04,0.338120,0.152557,-0.043320,-1.100510,2.160934,10.689896
2019-01-23 23:04:04,0.338120,0.152557,-0.043320,-0.832520,1.931213,10.187408
2019-01-23 23:04:04,0.338120,0.152557,-0.043320,-0.268997,1.518463,9.316422
2019-01-23 23:04:04,0.338120,0.152557,-0.043320,0.048050,1.044678,8.817505
2019-01-23 23:04:04,0.338120,0.152557,-0.043320,0.077957,0.682175,9.341537
2019-01-23 23:04:04,0.151138,0.089767,-0.119019,0.077957,0.682175,9.341537
2019-01-23 23:04:04,0.151138,0.089767,-0.119019,-0.395828,0.691742,9.323593
2019-01-23 23:04:04,0.151138,0.089767,-0.119019,-0.739197,1.042282,9.030472
2019-01-23 23:04:04,0.151138,0.089767,-0.119019,-1.143585,1.422745,9.619110
2019-01-23 23:04:04,0.151138,0.089767,-0.119019,-1.337402,1.931229,9.790192
2019-01-23 23:04:04,0.151138,0.089767,-0.119019,-1.473801,2.243484,9.113022
2019-01-23 23:04:04,0.151138,0.089767,-0.119019,-1.453445,2.342789,8.639252
2019-01-23 23:04:04,0.151138,0.089767,-0.119019,-1.361328,2.275787,8.672745
2019-01-23 23:04:04,0.151138,0.089767,-0.119019,-1.256042,2.023346,8.707443
2019-01-23 23:04:04,0.151138,0.089767,-0.119019,-1.221344,1.629730,8.982620
2019-01-23 23:04:04,0.155182,0.085297,-0.093231,-1.221344,1.629730,8.982620
2019-01-23 23:04:04,0.155182,0.085297,-0.093231,-1.138794,1.140396,9.933762
2019-01-23 23:04:04,0.155182,0.085297,-0.093231,-0.998810,0.898727,10.530777
2019-01-23 23:04:04,0.155182,0.085297,-0.093231,-0.970093,1.033905,10.624084
2019-01-23 23:04:04,0.155182,0.085297,-0.093231,-1.281174,1.583069,10.427872
2019-01-23 23:04:04,0.155182,0.085297,-0.093231,-1.320648,2.163330,9.745926
2019-01-23 23:04:04,0.155182,0.085297,-0.093231,-1.368500,2.363129,9.449219
2019-01-23 23:04:04,0.155182,0.085297,-0.093231,-1.524033,2.293732,9.662170
2019-01-23 23:04:04,0.155182,0.085297,-0.093231,-1.485748,2.089157,10.235260
2019-01-23 23:04:04,0.155182,0.085297,-0.093231,-1.406799,2.006592,10.071350
2019-01-23 23:04:04,0.155182,0.085297,-0.093231,-1.001205,2.181274,9.286499
2019-01-23 23:04:04,0.039474,0.046646,-0.045410,-1.001205,2.181274,9.286499
2019-01-23 23:04:04,0.039474,0.046646,-0.045410,-0.985657,2.306885,8.504059
2019-01-23 23:04:04,0.039474,0.046646,-0.045410,-1.093338,2.172897,8.661987
2019-01-23 23:04:04,0.039474,0.046646,-0.045410,-1.029922,1.756546,9.573639
2019-01-23 23:04:04,0.039474,0.046646,-0.045410,-0.755936,1.440689,10.231674
2019-01-23 23:04:04,0.039474,0.046646,-0.045410,-0.470001,1.408386,9.750717
2019-01-23 23:04:04,0.039474,0.046646,-0.045410,-0.627930,1.604599,9.280518
2019-01-23 23:04:04,0.039474,0.046646,-0.045410,-0.892334,1.822342,8.531570
2019-01-23 23:04:04,0.039474,0.046646,-0.045410,-1.448669,1.921646,8.119995
2019-01-23 23:04:04,0.039474,0.046646,-0.045410,-1.687943,1.947968,8.587799
2019-01-23 23:04:04,-0.070602,-0.011032,-0.041367,-1.687943,1.947968,8.587799
2019-01-23 23:04:04,-0.070602,-0.011032,-0.041367,-1.598221,2.017365,9.345139
2019-01-23 23:04:04,-0.070602,-0.011032,-0.041367,-1.585052,2.273392,9.532974
2019-01-23 23:04:04,-0.070602,-0.011032,-0.041367,-1.488144,2.454056,9.817719
2019-01-23 23:04:04,-0.070602,-0.011032,-0.041367,-1.301514,2.335617,10.474548
2019-01-23 23:04:04,-0.070602,-0.011032,-0.041367,-1.009583,1.973099,11.351517
2019-01-23 23:04:04,-0.070602,-0.011032,-0.041367,-0.467606,1.567520,11.892288
2019-01-23 23:04:04,-0.070602,-0.011032,-0.041367,-0.027328,1.494537,11.169662
2019-01-23 23:04:04,-0.070602,-0.011032,-0.041367,-0.015366,1.803207,9.463577
2019-01-23 23:04:04,-0.070602,-0.011032,-0.041367,-0.274979,2.287750,7.859192
2019-01-23 23:04:04,-0.070602,-0.011032,-0.041367,-0.899506,2.432526,7.421310
2019-01-23 23:04:04,0.044678,-0.030334,-0.077774,-0.899506,2.432526,7.421310
2019-01-23 23:04:04,0.044678,-0.030334,-0.077774,-1.434311,2.089142,8.758881
2019-01-23 23:04:04,0.044678,-0.030334,-0.077774,-1.305099,1.547180,10.271149
2019-01-23 23:04:04,0.044678,-0.030334,-0.077774,-0.777481,1.270798,11.020111
2019-01-23 23:04:04,0.044678,-0.030334,-0.077774,-0.429321,1.512482,10.549911
2019-01-23 23:04:04,0.044678,-0.030334,-0.077774,-0.854050,2.077179,9.573639
2019-01-23 23:04:04,0.044678,-0.030334,-0.077774,-1.283554,2.349976,8.892883
2019-01-23 23:04:04,0.044678,-0.030334,-0.077774,-1.350555,2.035309,9.206345
2019-01-23 23:04:04,0.044678,-0.030334,-0.077774,-1.092133,1.623749,9.704056
2019-01-23 23:04:04,0.044678,-0.030334,-0.077774,-0.656647,1.462234,9.626282
2019-01-23 23:04:04,0.092804,0.055191,-0.171432,-0.656647,1.462234,9.626282
2019-01-23 23:04:04,0.092804,0.055191,-0.171432,-0.668610,1.560333,9.257797
2019-01-23 23:04:04,0.092804,0.055191,-0.171432,-1.056244,1.919266,8.486099
2019-01-23 23:04:04,0.092804,0.055191,-0.171432,-1.441483,2.121445,7.982422
2019-01-23 23:04:04,0.092804,0.055191,-0.171432,-1.717850,2.162125,8.627274
2019-01-23 23:04:04,0.092804,0.055191,-0.171432,-1.581467,2.123840,9.426483
2019-01-23 23:04:04,0.092804,0.055191,-0.171432,-1.183060,2.164520,9.262573
2019-01-23 23:04:04,0.092804,0.055191,-0.171432,-1.026337,2.128632,9.127380
2019-01-23 23:04:04,0.092804,0.055191,-0.171432,-1.189041,2.055649,9.341537
2019-01-23 23:04:04,0.092804,0.055191,-0.171432,-1.309875,2.012573,9.690887
2019-01-23 23:04:04,0.092804,0.055191,-0.171432,-1.483368,2.084366,9.881119
2019-01-23 23:04:04,-0.154160,-0.075043,0.021484,-1.483368,2.084366,9.881119
2019-01-23 23:04:04,-0.154160,-0.075043,0.021484,-1.612579,2.079575,10.034256
2019-01-23 23:04:04,-0.154160,-0.075043,0.021484,-1.342194,1.914474,10.638443
2019-01-23 23:04:04,-0.154160,-0.075043,0.021484,-0.979675,1.644089,11.582428
2019-01-23 23:04:04,-0.154160,-0.075043,0.021484,-0.697327,1.472992,11.907837
2019-01-23 23:04:04,-0.154160,-0.075043,0.021484,-0.307281,1.475388,10.892090
2019-01-23 23:04:04,-0.154160,-0.075043,0.021484,-0.164917,1.652466,9.591599
2019-01-23 23:04:04,-0.154160,-0.075043,0.021484,-0.436493,1.727829,8.825882
2019-01-23 23:04:04,-0.154160,-0.075043,0.021484,-0.661438,1.635712,8.423889
2019-01-23 23:04:04,-0.154160,-0.075043,0.021484,-0.834900,1.402405,8.312622
2019-01-23 23:04:04,-0.030396,-0.080292,-0.064774,-0.834900,1.402405,8.312622
2019-01-23 23:04:04,-0.030396,-0.080292,-0.064774,-1.275192,1.376083,8.703857
2019-01-23 23:04:04,-0.030396,-0.080292,-0.064774,-1.373291,1.528030,9.217117
2019-01-23 23:04:04,-0.030396,-0.080292,-0.064774,-1.561127,1.912079,9.675339
2019-01-23 23:04:04,-0.030396,-0.080292,-0.064774,-1.745377,2.201614,9.754303
2019-01-23 23:04:04,-0.030396,-0.080292,-0.064774,-1.597015,1.945587,10.017517
2019-01-23 23:04:04,-0.030396,-0.080292,-0.064774,-1.035904,1.467010,10.828674
2019-01-23 23:04:04,-0.030396,-0.080292,-0.064774,-0.754745,1.414368,10.919617
2019-01-23 23:04:04,-0.030396,-0.080292,-0.064774,-0.685364,1.531616,9.741135
2019-01-23 23:04:04,-0.030396,-0.080292,-0.064774,-0.553757,1.500519,8.319809
2019-01-23 23:04:04,-0.030396,-0.080292,-0.064774,-0.697327,1.234909,8.014725
2019-01-23 23:04:04,-0.046173,-0.039917,0.050552,-0.697327,1.234909,8.014725
2019-01-23 23:04:04,-0.046173,-0.039917,0.050552,-0.983261,1.208588,8.169052
2019-01-23 23:04:04,-0.046173,-0.039917,0.050552,-1.486954,1.370102,8.288696
2019-01-23 23:04:04,-0.046173,-0.039917,0.050552,-1.545578,1.569901,8.067368
2019-01-23 23:04:04,-0.046173,-0.039917,0.050552,-1.678375,1.634506,8.445419
2019-01-23 23:04:04,-0.046173,-0.039917,0.050552,-1.763321,1.544785,10.091690
2019-01-23 23:04:04,-0.046173,-0.039917,0.050552,-1.417557,1.511276,11.615921
2019-01-23 23:04:04,-0.046173,-0.039917,0.050552,-0.943787,1.638092,11.820511
2019-01-23 23:04:04,-0.046173,-0.039917,0.050552,-0.490341,1.813965,11.130173
2019-01-23 23:04:04,-0.046173,-0.039917,0.050552,-0.519058,1.961136,10.382416
2019-01-23 23:04:04,-0.007126,-0.068085,0.141327,-0.519058,1.961136,10.382416
2019-01-23 23:04:04,-0.007126,-0.068085,0.141327,-0.706894,1.883362,9.639450
2019-01-23 23:04:04,-0.007126,-0.068085,0.141327,-0.942581,1.609390,9.582016
2019-01-23 23:04:04,-0.007126,-0.068085,0.141327,-0.928223,1.520844,9.948120
2019-01-23 23:04:04,-0.007126,-0.068085,0.141327,-0.893539,1.744583,9.841644
2019-01-23 23:04:04,-0.007126,-0.068085,0.141327,-0.824142,1.897720,9.263779
2019-01-23 23:04:04,-0.007126,-0.068085,0.141327,-0.905487,1.737411,9.580826
2019-01-23 23:04:04,-0.007126,-0.068085,0.141327,-0.836105,1.470612,10.695877
2019-01-23 23:04:04,-0.007126,-0.068085,0.141327,-0.526230,1.495728,10.874146
2019-01-23 23:04:04,-0.007126,-0.068085,0.141327,-0.430527,1.840286,9.663376
2019-01-23 23:04:04,-0.007126,-0.068085,0.141327,-0.446075,2.078384,8.127182
2019-01-23 23:04:04,0.098312,0.017075,-0.000809,-0.446075,2.078384,8.127182
2019-01-23 23:04:04,0.098312,0.017075,-0.000809,-0.749954,1.927628,8.015915
2019-01-23 23:04:04,0.098312,0.017075,-0.000809,-1.033508,1.793625,8.891693
2019-01-23 23:04:04,0.098312,0.017075,-0.000809,-1.221359,1.745773,9.378632
2019-01-23 23:04:04,0.098312,0.017075,-0.000809,-0.968903,1.780472,9.421707
2019-01-23 23:04:04,0.098312,0.017075,-0.000809,-0.844482,1.921646,9.560486
2019-01-23 23:04:04,0.098312,0.017075,-0.000809,-0.863632,2.019760,9.499466
2019-01-23 23:04:04,0.098312,0.017075,-0.000809,-0.740387,1.794830,9.601166
2019-01-23 23:04:04,0.098312,0.017075,-0.000809,-0.673401,1.681168,9.851212
2019-01-23 23:04:04,0.098312,0.017075,-0.000809,-0.582458,1.819962,9.793777
2019-01-23 23:04:04,0.013519,0.026489,-0.032211,-0.582458,1.819962,9.793777
2019-01-23 23:04:04,0.013519,0.026489,-0.032211,-0.734406,1.922852,9.622696
2019-01-23 23:04:04,0.013519,0.026489,-0.032211,-0.706894,1.864227,9.840439
2019-01-23 23:04:04,0.013519,0.026489,-0.032211,-0.715271,1.788849,10.140732
2019-01-23 23:04:04,0.013519,0.026489,-0.032211,-0.625534,1.752960,10.082123
2019-01-23 23:04:04,0.013519,0.026489,-0.032211,-0.765518,1.879776,10.040237
2019-01-23 23:04:04,0.013519,0.026489,-0.032211,-0.867218,2.095123,9.303253
2019-01-23 23:04:04,0.013519,0.026489,-0.032211,-1.227325,2.123840,8.640442
2019-01-23 23:04:04,0.013519,0.026489,-0.032211,-1.295532,1.914474,9.010132
2019-01-23 23:04:04,0.013519,0.026489,-0.032211,-1.002411,1.534012,9.455200
2019-01-23 23:04:04,0.013519,0.026489,-0.032211,-0.644669,1.519653,9.579620
2019-01-23 23:04:04,-0.034683,0.047058,-0.080704,-0.644669,1.519653,9.579620
2019-01-23 23:04:04,-0.034683,0.047058,-0.080704,-0.771500,1.815170,9.378632
2019-01-23 23:04:04,-0.034683,0.047058,-0.080704,-0.868408,2.012573,9.084305
2019-01-23 23:04:04,-0.034683,0.047058,-0.080704,-1.019150,1.896530,9.620300
2019-01-23 23:04:04,-0.034683,0.047058,-0.080704,-1.007187,1.651260,10.220901
2019-01-23 23:04:04,-0.034683,0.047058,-0.080704,-0.818161,1.427536,10.249619
2019-01-23 23:04:04,-0.034683,0.047058,-0.080704,-0.735596,1.523239,9.745926
2019-01-23 23:04:04,-0.034683,0.047058,-0.080704,-0.898315,1.650070,9.250610
2019-01-23 23:04:04,-0.034683,0.047058,-0.080704,-1.005997,1.739792,9.409729
2019-01-23 23:04:04,-0.034683,0.047058,-0.080704,-0.977280,1.696732,9.647827
2019-01-23 23:04:04,-0.014084,-0.049866,-0.035385,-0.977280,1.696732,9.647827
2019-01-23 23:04:04,-0.014084,-0.049866,-0.035385,-0.966507,1.718262,9.763870
2019-01-23 23:04:04,-0.014084,-0.049866,-0.035385,-0.614761,1.709885,9.729187
2019-01-23 23:04:04,-0.014084,-0.049866,-0.035385,-0.395828,1.584259,10.248413
2019-01-23 23:04:04,-0.014084,-0.049866,-0.035385,-0.239090,1.372498,10.347717
2019-01-23 23:04:04,-0.014084,-0.049866,-0.035385,-0.656647,1.310287,10.360886
2019-01-23 23:04:04,-0.014084,-0.049866,-0.035385,-0.924637,1.474197,10.259186
2019-01-23 23:04:04,-0.014084,-0.049866,-0.035385,-1.138794,1.695526,9.707642
2019-01-23 23:04:04,-0.014084,-0.049866,-0.035385,-1.221344,1.913284,9.156097
2019-01-23 23:04:04,-0.014084,-0.049866,-0.035385,-1.257248,1.912079,9.193192
2019-01-23 23:04:04,-0.014084,-0.049866,-0.035385,-1.210587,1.849869,9.346329
2019-01-23 23:04:04,-0.017761,-0.005463,-0.022980,-1.210587,1.849869,9.346329
2019-01-23 23:04:04,-0.017761,-0.005463,-0.022980,-0.897125,1.738602,9.483917
2019-01-23 23:04:04,-0.017761,-0.005463,-0.022980,-0.649460,1.711075,9.345123
2019-01-23 23:04:04,-0.017761,-0.005463,-0.022980,-0.653061,1.744583,8.883316
2019-01-23 23:04:04,-0.017761,-0.005463,-0.022980,-0.988052,1.817566,8.703857
2019-01-23 23:04:04,-0.017761,-0.005463,-0.022980,-1.102905,1.712280,8.755295
2019-01-23 23:04:04,-0.017761,-0.005463,-0.022980,-1.101715,1.420349,9.434860
2019-01-23 23:04:04,-0.017761,-0.005463,-0.022980,-0.858826,1.196625,10.186203
2019-01-23 23:04:04,-0.017761,-0.005463,-0.022980,-0.601608,1.268402,10.658783
2019-01-23 23:04:04,-0.017761,-0.005463,-0.022980,-0.614761,1.656052,10.415909
2019-01-23 23:04:04,-0.040298,-0.040466,0.000778,-0.614761,1.656052,10.415909
2019-01-23 23:04:04,-0.040298,-0.040466,0.000778,-0.874390,2.077179,9.988800
2019-01-23 23:04:04,-0.040298,-0.040466,0.000778,-0.980881,2.230316,9.561676
2019-01-23 23:04:04,-0.040298,-0.040466,0.000778,-0.918655,1.970703,9.497070
2019-01-23 23:04:04,-0.040298,-0.040466,0.000778,-0.746368,1.668015,9.416916
2019-01-23 23:04:04,-0.040298,-0.040466,0.000778,-0.635101,1.481369,9.169250
2019-01-23 23:04:04,-0.040298,-0.040466,0.000778,-0.654251,1.402405,8.975433
2019-01-23 23:04:04,-0.040298,-0.040466,0.000778,-0.850464,1.309097,8.998169
2019-01-23 23:04:04,-0.040298,-0.040466,0.000778,-0.973694,1.124832,9.698074
2019-01-23 23:04:04,-0.040298,-0.040466,0.000778,-1.031128,0.999222,10.823898
2019-01-23 23:04:04,-0.040298,-0.040466,0.000778,-0.858826,1.209778,11.041641
2019-01-23 23:04:04,-0.040298,-0.040466,0.000778,-0.766708,1.694336,10.185013
2019-01-23 23:04:04,-0.040298,-0.040466,0.000778,-0.916260,2.193237,9.113022
2019-01-23 23:04:04,-0.040298,-0.040466,0.000778,-1.186661,2.309296,9.068756
2019-01-23 23:04:04,-0.040298,-0.040466,0.000778,-1.165115,2.217163,9.278137
2019-01-23 23:04:04,-0.040298,-0.040466,0.000778,-1.295532,2.122650,8.999374
2019-01-23 23:04:04,-0.040298,-0.040466,0.000778,-1.223740,2.005402,8.675140
2019-01-23 23:04:04,-0.040298,-0.040466,0.000778,-1.186646,1.679977,9.377426
2019-01-23 23:04:04,-0.040298,-0.040466,0.000778,-1.084961,1.256439,10.579819
2019-01-23 23:04:04,-0.040298,-0.040466,0.000778,-0.746368,0.917862,11.379028
2019-01-23 23:04:04,0.018463,-0.026657,0.042313,-0.746368,0.917862,11.379028
2019-01-23 23:04:04,0.018463,-0.026657,0.042313,-0.405396,0.957336,10.884918
2019-01-23 23:04:04,0.018463,-0.026657,0.042313,-0.559738,1.257645,10.004349
2019-01-23 23:04:04,0.018463,-0.026657,0.042313,-0.935410,1.571106,9.742340
2019-01-23 23:04:04,0.018463,-0.026657,0.042313,-1.063431,1.754150,9.736359
2019-01-23 23:04:04,0.018463,-0.026657,0.042313,-0.709290,1.645279,9.548523
2019-01-23 23:04:04,0.018463,-0.026657,0.042313,-0.672195,1.539993,9.708832
2019-01-23 23:04:04,0.018463,-0.026657,0.042313,-0.687744,1.431122,9.833267
2019-01-23 23:04:04,0.018463,-0.026657,0.042313,-0.666214,1.286362,9.683716
2019-01-23 23:04:04,0.018463,-0.026657,0.042313,-0.752350,1.355743,9.292496
2019-01-23 23:04:04,0.018463,-0.026657,0.042313,-0.893539,1.554352,8.288696
2019-01-23 23:04:04,0.103195,-0.041321,0.020813,-0.893539,1.554352,8.288696
2019-01-23 23:04:04,0.103195,-0.041321,0.020813,-1.098129,1.755356,7.528976
2019-01-23 23:04:04,0.103195,-0.041321,0.020813,-1.474991,1.823547,8.221695
2019-01-23 23:04:04,0.103195,-0.041321,0.020813,-1.606598,1.891739,9.335556
2019-01-23 23:04:04,0.103195,-0.041321,0.020813,-1.247665,1.827133,9.641846
2019-01-23 23:04:04,0.103195,-0.041321,0.020813,-0.794235,1.817566,10.248428
2019-01-23 23:04:04,0.103195,-0.041321,0.020813,-0.542984,1.842682,11.175644
2019-01-23 23:04:04,0.103195,-0.041321,0.020813,-0.511871,1.861832,11.127777
2019-01-23 23:04:04,0.103195,-0.041321,0.020813,-0.523834,1.681168,10.399170
2019-01-23 23:04:04,0.103195,-0.041321,0.020813,-0.444885,1.298325,10.176636
2019-01-23 23:04:04,-0.079025,-0.100510,0.163437,-0.444885,1.298325,10.176636
2019-01-23 23:04:04,-0.079025,-0.100510,0.163437,-0.247467,0.942978,10.589401
2019-01-23 23:04:04,-0.079025,-0.100510,0.163437,-0.168503,1.001617,10.236450
2019-01-23 23:04:04,-0.079025,-0.100510,0.163437,-0.357544,1.395233,9.116608
2019-01-23 23:04:04,-0.079025,-0.100510,0.163437,-0.812180,1.894135,8.344925
2019-01-23 23:04:04,-0.079025,-0.100510,0.163437,-1.099319,2.164520,8.073349
2019-01-23 23:04:04,-0.079025,-0.100510,0.163437,-1.220154,2.163330,8.720596
2019-01-23 23:04:04,-0.079025,-0.100510,0.163437,-1.134003,1.985062,9.778229
2019-01-23 23:04:04,-0.079025,-0.100510,0.163437,-0.839691,1.846268,10.179031
2019-01-23 23:04:04,-0.079025,-0.100510,0.163437,-0.387451,1.742188,10.122803
2019-01-23 23:04:04,-0.079025,-0.100510,0.163437,0.009766,1.511292,10.457794
2019-01-23 23:04:04,-0.004929,-0.026657,0.053665,0.009766,1.511292,10.457794
2019-01-23 23:04:04,-0.004929,-0.026657,0.053665,0.226318,1.360535,10.707840
2019-01-23 23:04:04,-0.004929,-0.026657,0.053665,0.020538,1.534012,10.204147
2019-01-23 23:04:04,-0.004929,-0.026657,0.053665,-0.219955,1.735016,9.308044
2019-01-23 23:04:04,-0.004929,-0.026657,0.053665,-0.470001,1.819962,8.543533
2019-01-23 23:04:04,-0.004929,-0.026657,0.053665,-0.854050,1.823547,8.732574
2019-01-23 23:04:04,-0.004929,-0.026657,0.053665,-1.107681,1.718262,9.445633
2019-01-23 23:04:04,-0.004929,-0.026657,0.053665,-0.996429,1.688354,9.700470
2019-01-23 23:04:04,-0.004929,-0.026657,0.053665,-0.946167,1.634506,9.439651
2019-01-23 23:04:04,-0.004929,-0.026657,0.053665,-0.974884,1.539993,9.726791
2019-01-23 23:04:04,-0.029358,0.094284,-0.016754,-0.974884,1.539993,9.726791
2019-01-23 23:04:04,-0.029358,0.094284,-0.016754,-1.013168,1.315063,10.736557
2019-01-23 23:04:04,-0.029358,0.094284,-0.016754,-0.612381,1.042282,11.103851
2019-01-23 23:04:04,-0.029358,0.094284,-0.016754,-0.565720,1.167908,10.505646
2019-01-23 23:04:04,-0.029358,0.094284,-0.016754,-0.779877,1.403610,9.528183
2019-01-23 23:04:04,-0.029358,0.094284,-0.016754,-0.733215,1.404800,8.463379
2019-01-23 23:04:04,-0.029358,0.094284,-0.016754,-0.930618,1.275589,8.263580
2019-01-23 23:04:04,-0.029358,0.094284,-0.016754,-1.368500,1.382065,8.588989
2019-01-23 23:04:04,-0.029358,0.094284,-0.016754,-1.461823,1.526840,8.618912
2019-01-23 23:04:04,-0.029358,0.094284,-0.016754,-1.586258,1.502899,9.089096
2019-01-23 23:04:04,-0.029358,0.094284,-0.016754,-1.466614,1.001617,9.852402
2019-01-23 23:04:04,0.016998,0.167038,0.036331,-1.466614,1.001617,9.852402
2019-01-23 23:04:04,0.016998,0.167038,0.036331,-1.257233,0.205994,11.304855
2019-01-23 23:04:04,0.016998,0.167038,0.036331,-0.627930,-0.239075,11.966461
2019-01-23 23:04:04,0.016998,0.167038,0.036331,-0.588440,0.019363,9.628677
2019-01-23 23:04:04,0.016998,0.167038,0.036331,-0.854050,0.468002,8.559082
2019-01-23 23:04:04,0.016998,0.167038,0.036331,-1.367310,0.714462,8.655991
2019-01-23 23:04:04,0.016998,0.167038,0.036331,-1.603012,0.877182,9.488708
2019-01-23 23:04:04,0.016998,0.167038,0.036331,-1.848267,1.081772,9.784210
2019-01-23 23:04:04,0.016998,0.167038,0.036331,-2.252655,1.475388,9.555695
2019-01-23 23:04:04,0.016998,0.167038,0.036331,-2.414169,1.679977,9.028076
2019-01-23 23:04:04,-0.021423,0.067520,0.043839,-2.414169,1.679977,9.028076
2019-01-23 23:04:04,-0.021423,0.067520,0.043839,-2.099518,1.423950,8.981415
2019-01-23 23:04:04,-0.021423,0.067520,0.043839,-1.583862,0.890335,10.036652
2019-01-23 23:04:04,-0.021423,0.067520,0.043839,-0.578873,0.418961,11.715225
2019-01-23 23:04:04,-0.021423,0.067520,0.043839,0.185638,0.546982,11.307251
2019-01-23 23:04:04,-0.021423,0.067520,0.043839,-0.192429,0.946579,9.574844
2019-01-23 23:04:04,-0.021423,0.067520,0.043839,-1.157928,1.251663,8.992188
2019-01-23 23:04:04,-0.021423,0.067520,0.043839,-1.827927,1.255249,9.041245
2019-01-23 23:04:04,-0.021423,0.067520,0.043839,-1.495331,1.000412,9.689697
2019-01-23 23:04:04,-0.021423,0.067520,0.043839,-1.020355,0.880768,10.302261
2019-01-23 23:04:04,-0.021423,0.067520,0.043839,-0.657837,0.860428,10.230469
2019-01-23 23:04:04,0.040146,-0.082001,-0.040955,-0.657837,0.860428,10.230469
2019-01-23 23:04:04,0.040146,-0.082001,-0.040955,-0.350357,0.855652,9.556900
2019-01-23 23:04:04,0.040146,-0.082001,-0.040955,-0.498718,1.026733,9.194382
2019-01-23 23:04:04,0.040146,-0.082001,-0.040955,-0.747574,1.262436,8.906052
2019-01-23 23:04:04,0.040146,-0.082001,-0.040955,-1.246475,1.166718,8.775635
2019-01-23 23:04:04,0.040146,-0.082001,-0.040955,-1.559937,0.837692,10.084503
2019-01-23 23:04:04,0.040146,-0.082001,-0.040955,-1.288345,0.709686,11.332367
2019-01-23 23:04:04,0.040146,-0.082001,-0.040955,-0.934219,0.941788,10.683914
2019-01-23 23:04:04,0.040146,-0.082001,-0.040955,-0.576477,1.161926,9.463577
2019-01-23 23:04:04,0.040146,-0.082001,-0.040955,-0.574097,1.307892,9.138153
2019-01-23 23:04:04,-0.003220,-0.113281,-0.124695,-0.574097,1.307892,9.138153
2019-01-23 23:04:04,-0.003220,-0.113281,-0.124695,-0.877975,1.477783,8.963470
2019-01-23 23:04:04,-0.003220,-0.113281,-0.124695,-1.157944,1.482559,8.407150
2019-01-23 23:04:04,-0.003220,-0.113281,-0.124695,-1.575485,1.294739,8.776840
2019-01-23 23:04:04,-0.003220,-0.113281,-0.124695,-1.672394,0.976486,9.938553
2019-01-23 23:04:04,-0.003220,-0.113281,-0.124695,-1.178284,0.782669,10.831070
2019-01-23 23:04:04,-0.003220,-0.113281,-0.124695,-0.453247,0.775497,10.400360
2019-01-23 23:04:04,-0.003220,-0.113281,-0.124695,-0.239090,1.025543,9.641846
2019-01-23 23:04:04,-0.003220,-0.113281,-0.124695,-0.410187,1.386856,9.328384
2019-01-23 23:04:04,-0.003220,-0.113281,-0.124695,-0.911484,1.653656,9.256592
2019-01-23 23:04:04,-0.003220,-0.113281,-0.124695,-1.189041,1.566315,9.191986
2019-01-23 23:04:04,0.001663,-0.179916,0.029358,-1.189041,1.566315,9.191986
2019-01-23 23:04:04,0.001663,-0.179916,0.029358,-0.953354,1.349762,9.716019
2019-01-23 23:04:04,0.001663,-0.179916,0.029358,-0.627930,1.183472,10.204147
2019-01-23 23:04:04,0.001663,-0.179916,0.029358,-0.385056,0.953751,10.309433
2019-01-23 23:04:04,0.001663,-0.179916,0.029358,-0.414963,0.909485,10.253204
2019-01-23 23:04:04,0.001663,-0.179916,0.029358,-0.566910,1.001617,9.756699
2019-01-23 23:04:04,0.001663,-0.179916,0.029358,-0.705688,1.126038,9.579636
2019-01-23 23:04:04,0.001663,-0.179916,0.029358,-0.968903,1.310287,9.928986
2019-01-23 23:04:04,0.001663,-0.179916,0.029358,-1.064621,1.495728,10.545135
2019-01-23 23:04:04,0.001663,-0.179916,0.029358,-0.816956,1.572296,10.530777
2019-01-23 23:04:04,0.039658,-0.032898,0.094284,-0.816956,1.572296,10.530777
2019-01-23 23:04:04,0.039658,-0.032898,0.094284,-0.485550,1.575882,10.341736
2019-01-23 23:04:04,0.039658,-0.032898,0.094284,-0.227127,1.389252,10.085709
2019-01-23 23:04:04,0.039658,-0.032898,0.094284,-0.101517,1.233719,9.744736
2019-01-23 23:04:04,0.039658,-0.032898,0.094284,-0.222336,1.404800,8.865372
2019-01-23 23:04:04,0.039658,-0.032898,0.094284,-0.484360,1.672791,7.828079
2019-01-23 23:04:04,0.039658,-0.032898,0.094284,-0.430527,1.528030,7.668961
2019-01-23 23:04:04,0.039658,-0.032898,0.094284,-0.467606,1.129623,8.429871
2019-01-23 23:04:04,0.039658,-0.032898,0.094284,-0.887558,0.874786,9.564072
2019-01-23 23:04:04,0.039658,-0.032898,0.094284,-1.078979,0.685760,10.504456
2019-01-23 23:04:04,0.039658,-0.032898,0.094284,-0.550171,0.706100,10.010330
2019-01-23 23:04:04,-0.043655,0.116821,0.017273,-0.550171,0.706100,10.010330
2019-01-23 23:04:04,-0.043655,0.116821,0.017273,-0.504700,0.672607,10.106049
2019-01-23 23:04:04,-0.043655,0.116821,0.017273,-0.727234,0.350769,10.893280
2019-01-23 23:04:04,-0.043655,0.116821,0.017273,-0.693726,0.014572,10.789200
2019-01-23 23:04:04,-0.043655,0.116821,0.017273,-0.919861,-0.101486,9.860779
2019-01-23 23:04:04,-0.043655,0.116821,0.017273,-1.053848,-0.178055,9.467163
2019-01-23 23:04:04,-0.043655,0.116821,0.017273,-1.355347,-0.203186,9.335556
2019-01-23 23:04:04,-0.043655,0.116821,0.017273,-1.683167,-0.154129,10.120407
2019-01-23 23:04:05,-0.043655,0.116821,0.017273,-2.032516,0.255051,10.600159
2019-01-23 23:04:05,-0.043655,0.116821,0.017273,-2.186859,0.987244,10.659988
2019-01-23 23:04:05,-0.041824,0.093185,0.114197,-2.186859,0.987244,10.659988
2019-01-23 23:04:05,-0.041824,0.093185,0.114197,-1.802811,1.496918,10.375244
2019-01-23 23:04:05,-0.041824,0.093185,0.114197,-1.437897,1.536407,9.816513
2019-01-23 23:04:05,-0.041824,0.093185,0.114197,-1.678375,1.758942,9.398972
2019-01-23 23:04:05,-0.041824,0.093185,0.114197,-1.638901,1.969513,9.258987
2019-01-23 23:04:05,-0.041824,0.093185,0.114197,-0.974884,1.705093,9.349915
2019-01-23 23:04:05,-0.041824,0.093185,0.114197,-0.291733,1.195435,9.725586
2019-01-23 23:04:05,-0.041824,0.093185,0.114197,-0.477188,0.864029,10.454208
2019-01-23 23:04:05,-0.041824,0.093185,0.114197,-0.537003,0.401001,10.766464
2019-01-23 23:04:05,-0.041824,0.093185,0.114197,-0.131409,-0.082336,10.612122
2019-01-23 23:04:05,-0.041824,0.093185,0.114197,-0.210373,-0.405380,10.549911
2019-01-23 23:04:05,-0.045303,0.017136,-0.056396,-0.210373,-0.405380,10.549911
2019-01-23 23:04:05,-0.045303,0.017136,-0.056396,-0.491547,-0.321625,10.384811
2019-01-23 23:04:05,-0.045303,0.017136,-0.056396,-0.388641,-0.044067,9.979233
2019-01-23 23:04:05,-0.045303,0.017136,-0.056396,-0.641083,0.470398,9.115417
2019-01-23 23:04:05,-0.045303,0.017136,-0.056396,-1.248871,1.091339,8.677536
2019-01-23 23:04:05,-0.045303,0.017136,-0.056396,-1.960739,1.668015,9.235062
2019-01-23 23:04:05,-0.045303,0.017136,-0.056396,-1.632919,1.804398,9.206345
2019-01-23 23:04:05,-0.045303,0.017136,-0.056396,-0.743988,1.293533,9.197968
2019-01-23 23:04:05,-0.045303,0.017136,-0.056396,-0.527435,1.237305,9.678925
2019-01-23 23:04:05,-0.045303,0.017136,-0.056396,-0.490341,1.257645,8.976639
2019-01-23 23:04:05,0.027618,0.068497,-0.084686,-0.490341,1.257645,8.976639
2019-01-23 23:04:07,0.027618,0.068497,-0.084686,-0.351563,0.795822,8.559082
2019-01-23 23:04:08,0.027618,0.068497,-0.084686,-0.602798,0.375885,9.605942
2019-01-23 23:04:08,0.027618,0.068497,-0.084686,-0.791840,0.412979,10.642044
2019-01-23 23:04:08,0.027618,0.068497,-0.084686,-0.886353,0.905899,10.396774
2019-01-23 23:04:08,0.027618,0.068497,-0.084686,-1.147171,1.462234,9.231476
2019-01-23 23:04:08,0.027618,0.068497,-0.084686,-1.387650,1.723053,8.890488
2019-01-23 23:04:08,0.027618,0.068497,-0.084686,-1.480972,1.714676,9.742340
2019-01-23 23:04:08,0.027618,0.068497,-0.084686,-1.244080,1.657242,10.016312
2019-01-23 23:04:08,0.027618,0.068497,-0.084686,-1.035904,1.574692,9.450409
2019-01-23 23:04:08,0.027618,0.068497,-0.084686,-1.208191,1.480179,9.476730
2019-01-23 23:04:08,0.094452,0.060074,-0.076553,-1.208191,1.480179,9.476730
2019-01-23 23:04:08,0.094452,0.060074,-0.076553,-1.021545,1.057846,9.833267
2019-01-23 23:04:08,0.094452,0.060074,-0.076553,-0.775085,0.429733,10.648026
2019-01-23 23:04:08,0.094452,0.060074,-0.076553,-0.547775,0.184464,10.789200
2019-01-23 23:04:08,0.094452,0.060074,-0.076553,-0.381470,0.415375,9.710037
2019-01-23 23:04:08,0.094452,0.060074,-0.076553,-0.559738,0.931030,8.888092
2019-01-23 23:04:08,0.094452,0.060074,-0.076553,-0.801407,1.455048,7.889099
2019-01-23 23:04:08,0.094452,0.060074,-0.076553,-1.390045,1.654846,7.378220
2019-01-23 23:04:08,0.094452,0.060074,-0.076553,-1.908096,1.560333,8.256393
2019-01-23 23:04:08,0.094452,0.060074,-0.076553,-2.172501,1.248077,9.913422
2019-01-23 23:04:08,-0.115067,-0.061111,-0.010406,-2.172501,1.248077,9.913422
2019-01-23 23:04:08,-0.115067,-0.061111,-0.010406,-1.762131,0.651062,11.221100
2019-01-23 23:04:08,-0.115067,-0.061111,-0.010406,-1.119659,0.129425,12.116028
2019-01-23 23:04:08,-0.115067,-0.061111,-0.010406,-0.717667,0.239502,11.033264
2019-01-23 23:04:08,-0.115067,-0.061111,-0.010406,-0.933014,0.708496,10.135956
2019-01-23 23:04:08,-0.115067,-0.061111,-0.010406,-0.769104,1.033920,9.029282
2019-01-23 23:04:08,-0.115067,-0.061111,-0.010406,-0.478378,1.060226,8.275543
2019-01-23 23:04:08,-0.115067,-0.061111,-0.010406,-0.925827,1.063828,9.114227
2019-01-23 23:04:08,-0.115067,-0.061111,-0.010406,-1.125626,1.039902,9.827286
2019-01-23 23:04:08,-0.115067,-0.061111,-0.010406,-1.153152,1.153549,9.292496
2019-01-23 23:04:08,-0.115067,-0.061111,-0.010406,-1.467819,1.603409,8.283905
2019-01-23 23:04:08,0.079315,-0.244614,0.101257,-1.467819,1.603409,8.283905
2019-01-23 23:04:08,0.079315,-0.244614,0.101257,-1.874588,2.043686,8.225281
2019-01-23 23:04:08,0.079315,-0.244614,0.101257,-1.909286,2.169312,9.016113
2019-01-23 23:04:08,0.079315,-0.244614,0.101257,-1.263229,1.544785,10.655197
2019-01-23 23:04:08,0.079315,-0.244614,0.101257,-0.349167,0.926239,13.305252
2019-01-23 23:04:08,0.079315,-0.244614,0.101257,0.539780,0.897522,13.836456
2019-01-23 23:04:08,0.079315,-0.244614,0.101257,1.231308,1.035110,11.589600
2019-01-23 23:04:08,0.079315,-0.244614,0.101257,1.285141,0.744385,10.001953
2019-01-23 23:04:08,0.079315,-0.244614,0.101257,1.118835,0.361526,9.823700
2019-01-23 23:04:08,0.079315,-0.244614,0.101257,0.515854,0.722839,9.166870
2019-01-23 23:04:08,-0.028137,-0.124207,-0.125305,0.515854,0.722839,9.166870
2019-01-23 23:04:08,-0.028137,-0.124207,-0.125305,-0.416168,1.691940,7.179626
2019-01-23 23:04:08,-0.028137,-0.124207,-0.125305,-1.186646,2.832123,4.959091
2019-01-23 23:04:08,-0.028137,-0.124207,-0.125305,-1.941589,3.402802,4.963867
2019-01-23 23:04:08,-0.028137,-0.124207,-0.125305,-1.808792,2.688553,7.719208
2019-01-23 23:04:08,-0.028137,-0.124207,-0.125305,-1.002411,1.763718,11.056000
2019-01-23 23:04:08,-0.028137,-0.124207,-0.125305,-0.024933,1.508896,12.395981
2019-01-23 23:04:08,-0.028137,-0.124207,-0.125305,0.440475,1.717072,11.985611
2019-01-23 23:04:08,-0.028137,-0.124207,-0.125305,0.732391,1.823547,11.493881
2019-01-23 23:04:08,-0.028137,-0.124207,-0.125305,0.684540,1.568710,11.291687
2019-01-23 23:04:08,-0.028137,-0.124207,-0.125305,0.021729,1.612976,11.022491
2019-01-23 23:04:08,-0.028137,-0.124207,-0.125305,-0.375488,2.075989,9.722000
2019-01-23 23:04:08,-0.028137,-0.124207,-0.125305,-0.464020,2.156143,8.596176
2019-01-23 23:04:08,-0.028137,-0.124207,-0.125305,0.033691,1.577087,9.269760
2019-01-23 23:04:08,-0.028137,-0.124207,-0.125305,0.283752,0.939392,10.577438
2019-01-23 23:04:08,-0.028137,-0.124207,-0.125305,0.354324,0.743179,11.095474
2019-01-23 23:04:08,-0.028137,-0.124207,-0.125305,0.024124,1.293533,9.968460
2019-01-23 23:04:08,-0.028137,-0.124207,-0.125305,-0.656647,2.198029,7.919006
2019-01-23 23:04:08,-0.028137,-0.124207,-0.125305,-1.202209,2.901505,6.221298
2019-01-23 23:04:08,-0.028137,-0.124207,-0.125305,-1.040695,2.817764,6.185410
2019-01-23 23:04:08,0.214127,-0.026230,-0.125610,-1.040695,2.817764,6.185410
2019-01-23 23:04:08,0.214127,-0.026230,-0.125610,-0.710480,1.846283,8.499268
2019-01-23 23:04:08,0.214127,-0.026230,-0.125610,-0.163712,0.886749,11.119400
2019-01-23 23:04:08,0.214127,-0.026230,-0.125610,0.475174,0.450073,12.099258
2019-01-23 23:04:08,0.214127,-0.026230,-0.125610,0.824524,0.587646,11.539337
2019-01-23 23:04:08,0.214127,-0.026230,-0.125610,0.331604,1.171494,10.554703
2019-01-23 23:04:08,0.214127,-0.026230,-0.125610,-0.096725,1.730225,9.232666
2019-01-23 23:04:08,0.214127,-0.026230,-0.125610,-0.371902,1.989853,8.018311
2019-01-23 23:04:08,0.214127,-0.026230,-0.125610,-0.504700,2.178879,7.399765
2019-01-23 23:04:08,0.214127,-0.026230,-0.125610,-0.550156,2.367905,7.051605
2019-01-23 23:04:08,0.123901,0.118713,-0.076981,-0.550156,2.367905,7.051605
2019-01-23 23:04:08,0.123901,0.118713,-0.076981,-0.671005,2.668213,6.777634
2019-01-23 23:04:08,0.123901,0.118713,-0.076981,-0.818161,2.763916,6.763275
2019-01-23 23:04:08,0.123901,0.118713,-0.076981,-0.676987,2.430130,8.210938
2019-01-23 23:04:08,0.123901,0.118713,-0.076981,-0.333618,1.737411,10.890884
2019-01-23 23:04:08,0.123901,0.118713,-0.076981,0.356720,1.273193,12.776443
2019-01-23 23:04:08,0.123901,0.118713,-0.076981,0.734787,1.154755,13.478729
2019-01-23 23:04:08,0.123901,0.118713,-0.076981,0.478760,1.562729,13.202362
2019-01-23 23:04:08,0.123901,0.118713,-0.076981,0.124619,2.025742,12.069351
2019-01-23 23:04:08,0.123901,0.118713,-0.076981,0.243073,1.889343,11.243835
2019-01-23 23:04:08,0.123901,0.118713,-0.076981,0.403381,1.724243,10.820313
2019-01-23 23:04:08,-0.183060,0.022690,-0.039856,0.403381,1.724243,10.820313
2019-01-23 23:04:08,-0.183060,0.022690,-0.039856,-0.012970,2.090347,9.859589
2019-01-23 23:04:08,-0.183060,0.022690,-0.039856,-0.511871,2.360733,8.860580
2019-01-23 23:04:08,-0.183060,0.022690,-0.039856,-0.517853,2.081970,8.511230
2019-01-23 23:04:08,-0.183060,0.022690,-0.039856,-0.173294,1.733810,9.189606
2019-01-23 23:04:08,-0.183060,0.022690,-0.039856,-0.144577,1.592636,9.997177
2019-01-23 23:04:08,-0.183060,0.022690,-0.039856,-0.161331,1.598618,9.794983
2019-01-23 23:04:08,-0.183060,0.022690,-0.039856,-0.033310,1.689545,9.174042
2019-01-23 23:04:08,-0.183060,0.022690,-0.039856,-0.205597,1.971893,8.553101
2019-01-23 23:04:08,-0.183060,0.022690,-0.039856,-0.496323,2.311676,7.828079
2019-01-23 23:04:08,0.034775,0.159149,-0.215652,-0.496323,2.311676,7.828079
2019-01-23 23:04:08,0.034775,0.159149,-0.215652,-0.714066,2.318863,7.775436
2019-01-23 23:04:08,0.034775,0.159149,-0.215652,-0.665024,1.931213,8.851013
2019-01-23 23:04:08,0.034775,0.159149,-0.215652,-0.755951,1.695526,9.979233
2019-01-23 23:04:08,0.034775,0.159149,-0.215652,-0.653061,1.508881,10.504456
2019-01-23 23:04:08,0.034775,0.159149,-0.215652,-0.517853,1.069809,10.566666
2019-01-23 23:04:08,0.034775,0.159149,-0.215652,-0.289337,0.903503,10.956696
2019-01-23 23:04:08,0.034775,0.159149,-0.215652,-0.532227,1.114075,10.567856
2019-01-23 23:04:08,0.034775,0.159149,-0.215652,-0.956940,1.587860,9.610733
2019-01-23 23:04:08,0.034775,0.159149,-0.215652,-0.947372,1.742188,8.998169
2019-01-23 23:04:08,0.034775,0.159149,-0.215652,-0.747574,1.586655,8.983810
2019-01-23 23:04:08,-0.092957,-0.005829,-0.122864,-0.747574,1.586655,8.983810
2019-01-23 23:04:08,-0.092957,-0.005829,-0.122864,-0.752350,1.457443,9.696869
2019-01-23 23:04:08,-0.092957,-0.005829,-0.122864,-0.826523,1.517258,9.857193
2019-01-23 23:04:08,-0.092957,-0.005829,-0.122864,-1.167511,1.806793,9.074738
2019-01-23 23:04:08,-0.092957,-0.005829,-0.122864,-1.113678,1.979080,8.057785
2019-01-23 23:04:08,-0.092957,-0.005829,-0.122864,-0.796631,1.665619,8.102066
2019-01-23 23:04:08,-0.092957,-0.005829,-0.122864,-0.855240,1.322250,8.860580
2019-01-23 23:04:08,-0.092957,-0.005829,-0.122864,-1.173492,1.127228,9.378632
2019-01-23 23:04:08,-0.092957,-0.005829,-0.122864,-1.232117,0.939392,9.817719
2019-01-23 23:04:08,-0.092957,-0.005829,-0.122864,-0.937805,0.712082,10.198181
2019-01-23 23:04:08,-0.275162,-0.053848,0.050980,-0.937805,0.712082,10.198181
2019-01-23 23:04:08,-0.275162,-0.053848,0.050980,-0.553757,0.445282,10.765274
2019-01-23 23:04:08,-0.275162,-0.053848,0.050980,-0.355148,0.427338,11.377838
2019-01-23 23:04:08,-0.275162,-0.053848,0.050980,-0.572891,0.731216,11.521408
2019-01-23 23:04:08,-0.275162,-0.053848,0.050980,-0.674591,1.017166,11.516617
2019-01-23 23:04:08,-0.275162,-0.053848,0.050980,-0.382660,1.015961,11.359894
2019-01-23 23:04:08,-0.275162,-0.053848,0.050980,-0.322845,1.102112,11.676941
2019-01-23 23:04:08,-0.275162,-0.053848,0.050980,-0.897125,1.682373,11.444839
2019-01-23 23:04:08,-0.275162,-0.053848,0.050980,-0.764313,2.038895,9.891891
2019-01-23 23:04:08,-0.275162,-0.053848,0.050980,-0.462830,1.926437,8.872543
2019-01-23 23:04:08,-0.275162,-0.053848,0.050980,-0.369507,1.641693,8.877335
2019-01-23 23:04:08,0.234833,-0.054810,0.050125,-0.369507,1.641693,8.877335
2019-01-23 23:04:08,0.234833,-0.054810,0.050125,-0.286957,1.276779,9.355896
2019-01-23 23:04:08,0.234833,-0.054810,0.050125,-0.484360,1.127228,9.701660
2019-01-23 23:04:08,0.234833,-0.054810,0.050125,-0.535812,1.264832,9.647812
2019-01-23 23:04:08,0.234833,-0.054810,0.050125,-0.375488,1.270798,9.052017
2019-01-23 23:04:08,0.234833,-0.054810,0.050125,-0.118256,0.853256,9.014923
2019-01-23 23:04:08,0.234833,-0.054810,0.050125,0.043259,0.337601,9.933762
2019-01-23 23:04:08,0.234833,-0.054810,0.050125,-0.075180,0.433319,10.375244
2019-01-23 23:04:08,0.234833,-0.054810,0.050125,-0.502304,0.992035,9.626297
2019-01-23 23:04:08,0.234833,-0.054810,0.050125,-0.852859,1.677582,8.276733
2019-01-23 23:04:08,0.127075,0.045471,-0.181015,-0.852859,1.677582,8.276733
2019-01-23 23:04:08,0.127075,0.045471,-0.181015,-1.199814,2.176483,7.007339
2019-01-23 23:04:08,0.127075,0.045471,-0.181015,-1.287155,2.253052,6.626877
2019-01-23 23:04:08,0.127075,0.045471,-0.181015,-1.403198,2.176483,7.288498
2019-01-23 23:04:08,0.127075,0.045471,-0.181015,-1.393631,2.141785,8.104462
2019-01-23 23:04:08,0.127075,0.045471,-0.181015,-1.244080,2.032913,8.720612
2019-01-23 23:04:08,0.127075,0.045471,-0.181015,-1.093338,1.919250,9.687302
2019-01-23 23:04:08,0.127075,0.045471,-0.181015,-0.915070,1.693130,10.974640
2019-01-23 23:04:08,0.127075,0.045471,-0.181015,-0.520248,1.283966,11.955704
2019-01-23 23:04:08,0.127075,0.045471,-0.181015,-0.162521,0.840088,12.318207
2019-01-23 23:04:08,0.127075,0.045471,-0.181015,-0.119461,0.824539,12.131577
2019-01-23 23:04:08,-0.025452,0.016647,-0.006317,-0.119461,0.824539,12.131577
2019-01-23 23:04:08,-0.025452,0.016647,-0.006317,-0.557343,1.146378,11.344330
2019-01-23 23:04:08,-0.025452,0.016647,-0.006317,-0.429321,1.160736,10.299866
2019-01-23 23:04:08,-0.025452,0.016647,-0.006317,-0.787048,1.488556,9.834457
2019-01-23 23:04:08,-0.025452,0.016647,-0.006317,-1.583862,2.265015,9.053207
2019-01-23 23:04:08,-0.025452,0.016647,-0.006317,-1.721451,2.606003,7.842438
2019-01-23 23:04:08,-0.025452,0.016647,-0.006317,-1.296722,2.522247,7.388992
2019-01-23 23:04:08,-0.025452,0.016647,-0.006317,-0.863617,1.705109,8.918015
2019-01-23 23:04:08,-0.025452,0.016647,-0.006317,-0.241486,0.468002,11.710434
2019-01-23 23:04:08,-0.025452,0.016647,-0.006317,0.269379,-0.045258,13.757492
2019-01-23 23:04:08,0.027802,-0.015915,0.010849,0.269379,-0.045258,13.757492
2019-01-23 23:04:08,0.027802,-0.015915,0.010849,0.307663,0.503906,12.446228
2019-01-23 23:04:08,0.027802,-0.015915,0.010849,-0.271393,1.583069,9.706436
2019-01-23 23:04:08,0.027802,-0.015915,0.010849,-0.405396,2.121460,7.594788
2019-01-23 23:04:08,0.027802,-0.015915,0.010849,-0.604004,2.044876,7.478729
2019-01-23 23:04:08,0.027802,-0.015915,0.010849,-1.067017,1.940796,8.542343
2019-01-23 23:04:08,0.027802,-0.015915,0.010849,-1.343384,1.812775,8.804352
2019-01-23 23:04:08,0.027802,-0.015915,0.010849,-1.235703,1.571106,8.130783
2019-01-23 23:04:08,0.027802,-0.015915,0.010849,-0.681763,1.493332,7.732361
2019-01-23 23:04:08,0.027802,-0.015915,0.010849,-0.624344,1.364120,8.825882
2019-01-23 23:04:08,0.027802,-0.015915,0.010849,-0.505890,1.251663,10.126389
2019-01-23 23:04:08,-0.155624,-0.090973,-0.044052,-0.505890,1.251663,10.126389
2019-01-23 23:04:08,-0.155624,-0.090973,-0.044052,-0.321655,1.323441,10.426682
2019-01-23 23:04:08,-0.155624,-0.090973,-0.044052,-0.341980,1.529221,9.853607
2019-01-23 23:04:09,-0.155624,-0.090973,-0.044052,-0.493927,1.609390,9.531769
2019-01-23 23:04:09,-0.155624,-0.090973,-0.044052,-0.989243,1.487350,10.299866
2019-01-23 23:04:09,-0.155624,-0.090973,-0.044052,-1.186646,1.245682,11.115814
2019-01-23 23:04:09,-0.155624,-0.090973,-0.044052,-1.049072,1.100906,10.975830
2019-01-23 23:04:09,-0.155624,-0.090973,-0.044052,-1.032318,1.318665,10.237656
2019-01-23 23:04:09,-0.155624,-0.090973,-0.044052,-1.004807,1.561523,9.847626
2019-01-23 23:04:09,-0.155624,-0.090973,-0.044052,-0.803802,1.585449,9.810532
2019-01-23 23:04:09,0.109482,-0.044373,0.085129,-0.803802,1.585449,9.810532
2019-01-23 23:04:09,0.109482,-0.044373,0.085129,-0.461624,1.478973,9.633469
2019-01-23 23:04:09,0.109482,-0.044373,0.085129,-0.379074,1.447876,9.978027
2019-01-23 23:04:09,0.109482,-0.044373,0.085129,-0.435303,1.569901,9.930176
2019-01-23 23:04:09,0.109482,-0.044373,0.085129,-0.215164,1.544785,9.014923
2019-01-23 23:04:09,0.109482,-0.044373,0.085129,-0.321655,1.644089,8.482513
2019-01-23 23:04:09,0.109482,-0.044373,0.085129,-0.724838,1.812775,8.734955
2019-01-23 23:04:09,0.109482,-0.044373,0.085129,-0.508286,1.592636,9.105850
2019-01-23 23:04:09,0.109482,-0.044373,0.085129,-0.418564,1.400024,9.634659
2019-01-23 23:04:09,0.109482,-0.044373,0.085129,-0.347961,1.580673,10.287903
2019-01-23 23:04:09,0.109482,-0.044373,0.085129,-0.578873,1.849869,10.090485
2019-01-23 23:04:09,0.043015,-0.051346,0.007187,-0.578873,1.849869,10.090485
2019-01-23 23:04:09,0.043015,-0.051346,0.007187,-0.334808,1.880981,9.719604
2019-01-23 23:04:09,0.043015,-0.051346,0.007187,-0.261826,1.506500,10.153900
2019-01-23 23:04:09,0.043015,-0.051346,0.007187,-0.111069,1.280380,11.199570
2019-01-23 23:04:09,0.043015,-0.051346,0.007187,-0.073990,1.306686,10.918411
2019-01-23 23:04:09,0.043015,-0.051346,0.007187,-0.180466,1.707489,9.881119
2019-01-23 23:04:09,0.043015,-0.051346,0.007187,-0.412582,2.129822,8.587799
2019-01-23 23:04:09,0.043015,-0.051346,0.007187,-0.548965,2.215973,8.130768
2019-01-23 23:04:09,0.043015,-0.051346,0.007187,-0.641083,2.151367,8.313828
2019-01-23 23:04:09,0.043015,-0.051346,0.007187,-0.294128,1.727829,9.156097
2019-01-23 23:04:09,0.013947,0.059525,-0.069901,-0.294128,1.727829,9.156097
2019-01-23 23:04:09,0.013947,0.059525,-0.069901,-0.058441,1.153549,10.272354
2019-01-23 23:04:09,0.013947,0.059525,-0.069901,0.170090,0.868805,11.029678
2019-01-23 23:04:09,0.013947,0.059525,-0.069901,-0.045273,1.110474,10.560684
2019-01-23 23:04:09,0.013947,0.059525,-0.069901,-0.229523,1.719452,8.946716
2019-01-23 23:04:09,0.013947,0.059525,-0.069901,-0.662628,2.354752,7.142532
2019-01-23 23:04:09,0.013947,0.059525,-0.069901,-1.515671,2.744781,6.461777
2019-01-23 23:04:09,0.013947,0.059525,-0.069901,-1.693924,2.583267,7.304047
2019-01-23 23:04:09,0.013947,0.059525,-0.069901,-1.235703,1.922852,8.797165
2019-01-23 23:04:09,0.013947,0.059525,-0.069901,-0.733215,1.136810,10.186203
2019-01-23 23:04:09,0.013947,0.059525,-0.069901,-0.224731,0.465622,11.760681
2019-01-23 23:04:09,-0.142929,-0.088654,0.092148,-0.224731,0.465622,11.760681
2019-01-23 23:04:09,-0.142929,-0.088654,0.092148,0.253830,0.105499,12.803955
2019-01-23 23:04:09,-0.142929,-0.088654,0.092148,0.240677,0.580475,12.066971
2019-01-23 23:04:09,-0.142929,-0.088654,0.092148,-0.418564,1.804398,10.079727
2019-01-23 23:04:09,-0.142929,-0.088654,0.092148,-0.973694,3.033112,8.117615
2019-01-23 23:04:09,-0.142929,-0.088654,0.092148,-1.128021,3.200607,7.446426
2019-01-23 23:04:09,-0.142929,-0.088654,0.092148,-1.034714,2.367920,9.194382
2019-01-23 23:04:09,-0.142929,-0.088654,0.092148,-0.447281,1.210983,11.466370
2019-01-23 23:04:09,-0.142929,-0.088654,0.092148,0.228699,0.611572,11.710434
2019-01-23 23:04:09,-0.142929,-0.088654,0.092148,0.262207,0.818558,9.926590
2019-01-23 23:04:09,0.136353,0.055252,-0.023773,0.262207,0.818558,9.926590
2019-01-23 23:04:09,0.136353,0.055252,-0.023773,-0.035706,0.957352,9.022095
2019-01-23 23:04:09,0.136353,0.055252,-0.023773,-0.234314,0.945374,9.500656
2019-01-23 23:04:09,0.136353,0.055252,-0.023773,-0.662628,1.272003,9.856003
2019-01-23 23:04:09,0.136353,0.055252,-0.023773,-0.883957,1.717072,9.113022
2019-01-23 23:04:09,0.136353,0.055252,-0.023773,-0.473587,1.555557,8.830673
2019-01-23 23:04:09,0.136353,0.055252,-0.023773,-0.382660,1.141586,10.150314
2019-01-23 23:04:09,0.136353,0.055252,-0.023773,-0.904297,1.336609,10.991394
2019-01-23 23:04:09,0.136353,0.055252,-0.023773,-1.233307,2.064026,9.567657
2019-01-23 23:04:09,0.136353,0.055252,-0.023773,-0.947372,2.316467,8.021896
2019-01-23 23:04:09,0.136353,0.055252,-0.023773,-0.821747,1.955154,9.017303
2019-01-23 23:04:09,0.067764,0.104248,0.066864,-0.821747,1.955154,9.017303
2019-01-23 23:04:09,0.067764,0.104248,0.066864,-0.885147,1.513672,10.914825
2019-01-23 23:04:09,0.067764,0.104248,0.066864,-0.320450,1.297119,10.930374
2019-01-23 23:04:09,0.067764,0.104248,0.066864,0.095901,1.295929,9.852417
2019-01-23 23:04:09,0.067764,0.104248,0.066864,-0.030914,1.299515,9.341537
2019-01-23 23:04:09,0.067764,0.104248,0.066864,-0.221146,1.250458,9.389404
2019-01-23 23:04:09,0.067764,0.104248,0.066864,-0.698517,1.474197,9.260178
2019-01-23 23:04:09,0.067764,0.104248,0.066864,-0.794235,1.634521,8.353302
2019-01-23 23:04:09,0.067764,0.104248,0.066864,-0.639893,1.419159,8.032669
2019-01-23 23:04:09,0.067764,0.104248,0.066864,-0.898315,1.639297,8.891693
2019-01-23 23:04:09,-0.077377,-0.094528,0.010483,-0.898315,1.639297,8.891693
2019-01-23 23:04:09,-0.077377,-0.094528,0.010483,-1.195023,2.013779,9.469559
2019-01-23 23:04:09,-0.077377,-0.094528,0.010483,-1.119659,2.154953,9.160873
2019-01-23 23:04:09,-0.077377,-0.094528,0.010483,-0.712875,1.731430,10.185013
2019-01-23 23:04:09,-0.077377,-0.094528,0.010483,-0.106293,1.283966,12.054993
2019-01-23 23:04:09,-0.077377,-0.094528,0.010483,0.223923,1.329422,12.352905
2019-01-23 23:04:09,-0.077377,-0.094528,0.010483,0.062408,1.827133,10.467361
2019-01-23 23:04:09,-0.077377,-0.094528,0.010483,-0.260635,2.158539,8.707443
2019-01-23 23:04:09,-0.077377,-0.094528,0.010483,-0.654251,1.819962,9.287704
2019-01-23 23:04:09,-0.077377,-0.094528,0.010483,-0.760727,1.317459,10.559494
2019-01-23 23:04:09,-0.077377,-0.094528,0.010483,-0.280975,0.970505,10.128769
2019-01-23 23:04:09,-0.077377,-0.094528,0.010483,-0.108688,1.055450,9.060379
2019-01-23 23:04:09,-0.077377,-0.094528,0.010483,-0.577682,1.494537,8.788803
2019-01-23 23:04:09,-0.077377,-0.094528,0.010483,-1.342178,2.141800,8.651215
2019-01-23 23:04:09,-0.077377,-0.094528,0.010483,-1.477386,2.322449,8.547119
2019-01-23 23:04:09,-0.077377,-0.094528,0.010483,-0.950958,1.888153,9.336761
2019-01-23 23:04:10,-0.077377,-0.094528,0.010483,-0.376678,1.358139,10.758087
2019-01-23 23:04:10,-0.077377,-0.094528,0.010483,-0.202011,1.289948,11.332367
2019-01-23 23:04:10,-0.077377,-0.094528,0.010483,-0.090744,1.465820,10.336960
2019-01-23 23:04:10,-0.077377,-0.094528,0.010483,-0.184052,1.569901,9.209930
2019-01-23 23:04:10,0.009918,0.017502,-0.080460,-0.184052,1.569901,9.209930
2019-01-23 23:04:10,0.009918,0.017502,-0.080460,-0.577682,1.670410,9.308044
2019-01-23 23:04:10,0.009918,0.017502,-0.080460,-0.773895,1.525635,9.469559
2019-01-23 23:04:10,0.009918,0.017502,-0.080460,-0.544174,1.133209,9.337952
2019-01-23 23:04:10,0.009918,0.017502,-0.080460,-0.481964,0.807800,9.669357
2019-01-23 23:04:10,0.009918,0.017502,-0.080460,-0.621948,0.692932,10.096481
2019-01-23 23:04:10,0.009918,0.017502,-0.080460,-0.875595,1.019562,10.094086
2019-01-23 23:04:10,0.009918,0.017502,-0.080460,-1.095718,1.534012,9.389389
2019-01-23 23:04:10,0.009918,0.017502,-0.080460,-1.123245,1.797226,8.805542
2019-01-23 23:04:10,0.009918,0.017502,-0.080460,-1.138794,1.736206,9.030472
2019-01-23 23:04:10,0.009918,0.017502,-0.080460,-0.886353,1.561523,9.651413
2019-01-23 23:04:10,-0.027954,0.033020,-0.010345,-0.886353,1.561523,9.651413
2019-01-23 23:04:10,-0.027954,0.033020,-0.010345,-0.594437,1.397614,9.844040
2019-01-23 23:04:10,-0.027954,0.033020,-0.010345,-0.582474,1.383270,9.360687
2019-01-23 23:04:10,-0.027954,0.033020,-0.010345,-0.730820,1.407196,9.074738
2019-01-23 23:04:10,-0.027954,0.033020,-0.010345,-0.253448,1.076981,9.093887
2019-01-23 23:04:10,-0.027954,0.033020,-0.010345,-0.327637,0.881973,9.564072
2019-01-23 23:04:10,-0.027954,0.033020,-0.010345,-0.498718,1.004013,9.729172
2019-01-23 23:04:10,-0.027954,0.033020,-0.010345,-0.514267,1.176285,9.414520
2019-01-23 23:04:10,-0.027954,0.033020,-0.010345,-0.703308,1.299515,9.473145
2019-01-23 23:04:10,-0.027954,0.033020,-0.010345,-1.110092,1.324646,9.999573
2019-01-23 23:04:10,-0.082870,-0.039551,0.006210,-1.110092,1.324646,9.999573
2019-01-23 23:04:10,-0.082870,-0.039551,0.006210,-1.193832,1.520859,10.080917
2019-01-23 23:04:10,-0.082870,-0.039551,0.006210,-1.238098,1.697922,9.919403
2019-01-23 23:04:10,-0.082870,-0.039551,0.006210,-0.903107,1.365311,10.297470
2019-01-23 23:04:10,-0.082870,-0.039551,0.006210,-0.477173,0.690536,11.826477
2019-01-23 23:04:10,-0.082870,-0.039551,0.006210,-0.247467,0.487152,12.839844
2019-01-23 23:04:10,-0.082870,-0.039551,0.006210,-0.193634,1.121262,11.052414
2019-01-23 23:04:10,-0.082870,-0.039551,0.006210,-0.227127,1.886963,8.127182
2019-01-23 23:04:10,-0.082870,-0.039551,0.006210,-0.284561,2.105896,6.786011
2019-01-23 23:04:10,-0.082870,-0.039551,0.006210,-0.816971,1.842697,7.997971
2019-01-23 23:04:10,-0.082870,-0.039551,0.006210,-0.995224,1.573502,9.168060
2019-01-23 23:04:10,0.053589,-0.086716,0.041275,-0.995224,1.573502,9.168060
2019-01-23 23:04:12,0.053589,-0.086716,0.041275,-0.505890,1.270798,9.052017
2019-01-23 23:04:12,0.053589,-0.086716,0.041275,-0.237900,0.881973,9.549713
2019-01-23 23:04:12,0.053589,-0.086716,0.041275,-0.216370,0.678574,11.370651
2019-01-23 23:04:12,0.053589,-0.086716,0.041275,-0.152954,0.896332,12.418701
2019-01-23 23:04:12,0.053589,-0.086716,0.041275,-0.124237,1.480179,10.991394
2019-01-23 23:04:12,0.053589,-0.086716,0.041275,-0.263016,2.202805,8.962280
2019-01-23 23:04:12,0.053589,-0.086716,0.041275,-0.647079,2.513870,8.445435
2019-01-23 23:04:12,0.053589,-0.086716,0.041275,-0.623138,2.125046,8.780426
2019-01-23 23:04:12,0.053589,-0.086716,0.041275,-0.162521,1.141586,9.531769
2019-01-23 23:04:12,0.036179,-0.139542,0.018677,-0.162521,1.141586,9.531769
2019-01-23 23:04:12,0.036179,-0.139542,0.018677,0.250244,0.160522,10.663574
2019-01-23 23:04:12,0.036179,-0.139542,0.018677,0.462006,0.156937,11.205551
2019-01-23 23:04:12,0.036179,-0.139542,0.018677,-0.027328,1.310287,9.779434
2019-01-23 23:04:13,0.036179,-0.139542,0.018677,-0.496323,2.371506,7.466766
2019-01-23 23:04:13,0.036179,-0.139542,0.018677,-1.083755,2.881165,7.723999
2019-01-23 23:04:13,0.036179,-0.139542,0.018677,-1.466614,2.981674,9.695679
2019-01-23 23:04:13,0.036179,-0.139542,0.018677,-1.178284,2.688553,10.820313
2019-01-23 23:04:13,0.036179,-0.139542,0.018677,0.135391,1.342590,11.064377
2019-01-23 23:04:13,0.036179,-0.139542,0.018677,0.947754,0.076782,12.523987
2019-01-23 23:04:13,0.036179,-0.139542,0.018677,1.056625,0.160522,12.594589
2019-01-23 23:04:13,0.112411,-0.036560,-0.052490,1.056625,0.160522,12.594589
2019-01-23 23:04:13,0.112411,-0.036560,-0.052490,0.124619,1.555542,9.235062
2019-01-23 23:04:13,0.112411,-0.036560,-0.052490,-0.809784,3.145584,5.100266
2019-01-23 23:04:13,0.112411,-0.036560,-0.052490,-1.448669,3.224548,4.716217
2019-01-23 23:04:13,0.112411,-0.036560,-0.052490,-1.088547,1.689545,9.049622
2019-01-23 23:04:13,0.112411,-0.036560,-0.052490,-0.294128,0.426132,13.226288
2019-01-23 23:04:13,0.112411,-0.036560,-0.052490,0.771881,-0.181656,13.434464
2019-01-23 23:04:13,0.112411,-0.036560,-0.052490,1.298309,0.339996,11.716415
2019-01-23 23:04:13,0.112411,-0.036560,-0.052490,-0.081161,2.070007,10.322601
2019-01-23 23:04:13,0.112411,-0.036560,-0.052490,-1.175888,3.808395,8.999374
2019-01-23 23:04:13,-0.253372,-0.120056,0.099731,-1.175888,3.808395,8.999374
2019-01-23 23:04:13,-0.253372,-0.120056,0.099731,-1.212982,4.146973,9.057999
2019-01-23 23:04:13,-0.253372,-0.120056,0.099731,-0.087158,2.384659,10.906448
2019-01-23 23:04:13,-0.253372,-0.120056,0.099731,1.163101,0.524246,13.150909
2019-01-23 23:04:13,-0.253372,-0.120056,0.099731,1.926422,0.131821,12.340942
2019-01-23 23:04:13,-0.253372,-0.120056,0.099731,2.159714,0.509888,7.965668
2019-01-23 23:04:13,-0.253372,-0.120056,0.099731,1.944366,1.012375,4.397964
2019-01-23 23:04:13,-0.253372,-0.120056,0.099731,0.697693,1.477783,4.342941
2019-01-23 23:04:13,-0.253372,-0.120056,0.099731,-0.866013,2.090347,6.295471
2019-01-23 23:04:13,-0.253372,-0.120056,0.099731,-1.808792,2.358337,7.296875
2019-01-23 23:04:13,-0.253372,-0.120056,0.099731,-1.903305,1.780472,7.460785
2019-01-23 23:04:13,0.077240,0.168381,-0.154816,-1.903305,1.780472,7.460785
2019-01-23 23:04:13,0.077240,0.168381,-0.154816,-1.336212,0.831711,9.694489
2019-01-23 23:04:13,0.077240,0.168381,-0.154816,-0.846863,0.707291,12.299072
2019-01-23 23:04:13,0.077240,0.168381,-0.154816,-1.224945,1.650070,11.642242
2019-01-23 23:04:13,0.077240,0.168381,-0.154816,-1.279968,2.419357,9.745926
2019-01-23 23:04:13,0.077240,0.168381,-0.154816,-0.873199,2.312881,9.834457
2019-01-23 23:04:13,0.077240,0.168381,-0.154816,-0.495117,2.047272,11.122986
2019-01-23 23:04:13,0.077240,0.168381,-0.154816,-0.400604,2.042496,10.701859
2019-01-23 23:04:13,0.077240,0.168381,-0.154816,0.174866,1.335403,9.584412
2019-01-23 23:04:13,0.077240,0.168381,-0.154816,0.527817,0.160538,9.962479
2019-01-23 23:04:13,0.001114,0.179184,0.081589,0.527817,0.160538,9.962479
2019-01-23 23:04:13,0.001114,0.179184,0.081589,0.338776,0.088745,11.227081
2019-01-23 23:04:13,0.001114,0.179184,0.081589,-0.097916,0.878387,10.735352
2019-01-23 23:04:13,0.001114,0.179184,0.081589,-0.505890,1.738602,9.245834
2019-01-23 23:04:13,0.001114,0.179184,0.081589,-0.991638,2.251862,8.667953
2019-01-23 23:04:13,0.001114,0.179184,0.081589,-0.838501,2.189651,9.448029
2019-01-23 23:04:13,0.001114,0.179184,0.081589,-0.508286,1.943192,10.123993
2019-01-23 23:04:13,0.001114,0.179184,0.081589,-0.341980,1.677582,9.683716
2019-01-23 23:04:13,0.001114,0.179184,0.081589,0.045654,1.000412,9.483917
2019-01-23 23:04:13,0.001114,0.179184,0.081589,0.615143,0.471603,10.011536
2019-01-23 23:04:13,0.001114,0.179184,0.081589,0.062408,0.568512,10.139542
2019-01-23 23:04:13,0.047974,0.157867,-0.159698,0.062408,0.568512,10.139542
2019-01-23 23:04:13,0.047974,0.157867,-0.159698,-0.393433,0.960938,8.591400
2019-01-23 23:04:13,0.047974,0.157867,-0.159698,-0.594421,1.179871,7.560089
2019-01-23 23:04:13,0.047974,0.157867,-0.159698,-0.849274,1.233704,7.976440
2019-01-23 23:04:13,0.047974,0.157867,-0.159698,-1.134003,1.596222,8.453796
2019-01-23 23:04:13,0.047974,0.157867,-0.159698,-1.630524,2.041290,8.176239
2019-01-23 23:04:13,0.047974,0.157867,-0.159698,-1.558731,1.846283,8.316208
2019-01-23 23:04:13,0.047974,0.157867,-0.159698,-1.195023,0.972900,10.126389
2019-01-23 23:04:13,0.047974,0.157867,-0.159698,-0.953354,0.552948,12.178238
2019-01-23 23:04:13,0.047974,0.157867,-0.159698,-0.587250,0.671402,11.787003
2019-01-23 23:04:13,-0.261002,-0.090683,0.022583,-0.587250,0.671402,11.787003
2019-01-23 23:04:13,-0.261002,-0.090683,0.022583,-0.087143,0.678574,10.350113
2019-01-23 23:04:13,-0.261002,-0.090683,0.022583,0.375870,0.454849,9.570053
2019-01-23 23:04:13,-0.261002,-0.090683,0.022583,-0.295319,0.725235,10.677933
2019-01-23 23:04:13,-0.261002,-0.090683,0.022583,-1.441483,1.385666,10.843033
2019-01-23 23:04:13,-0.261002,-0.090683,0.022583,-1.364914,1.487350,9.421707
2019-01-23 23:04:13,-0.261002,-0.090683,0.022583,-0.704498,0.834106,9.404953
2019-01-23 23:04:13,-0.261002,-0.090683,0.022583,-0.544174,0.567307,11.229477
2019-01-23 23:04:13,-0.261002,-0.090683,0.022583,-0.592041,0.986053,11.363480
2019-01-23 23:04:13,-0.261002,-0.090683,0.022583,-0.673386,1.194229,9.970856
2019-01-23 23:04:13,-0.261002,-0.090683,0.022583,-0.243881,0.695328,9.329575
2019-01-23 23:04:13,0.035690,-0.019028,-0.046066,-0.243881,0.695328,9.329575
2019-01-23 23:04:13,0.035690,-0.019028,-0.046066,-0.283356,0.342392,10.051010
2019-01-23 23:04:13,0.035690,-0.019028,-0.046066,-1.065826,0.564911,10.332169
2019-01-23 23:04:13,0.035690,-0.019028,-0.046066,-1.033508,0.544586,9.846420
2019-01-23 23:04:13,0.035690,-0.019028,-0.046066,-0.679367,0.146179,9.769852
2019-01-23 23:04:13,0.035690,-0.019028,-0.046066,-0.746368,0.402206,10.524796
2019-01-23 23:04:13,0.035690,-0.019028,-0.046066,-1.297928,1.177475,10.464966
2019-01-23 23:04:13,0.035690,-0.019028,-0.046066,-1.013168,1.511276,9.044830
2019-01-23 23:04:13,0.035690,-0.019028,-0.046066,-0.416168,0.920258,8.024292
2019-01-23 23:04:13,0.035690,-0.019028,-0.046066,0.082748,0.057648,8.947922
2019-01-23 23:04:13,0.038254,-0.229889,0.068268,0.082748,0.057648,8.947922
2019-01-23 23:04:13,0.038254,-0.229889,0.068268,-0.084763,0.093536,10.585815
2019-01-23 23:04:13,0.038254,-0.229889,0.068268,-0.497528,0.923843,10.895676
2019-01-23 23:04:13,0.038254,-0.229889,0.068268,-0.563324,1.502914,9.727982
2019-01-23 23:04:13,0.038254,-0.229889,0.068268,-0.340790,1.474197,8.940750
2019-01-23 23:04:13,0.038254,-0.229889,0.068268,-0.641083,1.708679,9.799759
2019-01-23 23:04:13,0.038254,-0.229889,0.068268,-0.312073,1.518463,10.359680
2019-01-23 23:04:13,0.038254,-0.229889,0.068268,0.797012,0.475189,10.521210
2019-01-23 23:04:13,0.038254,-0.229889,0.068268,0.295700,0.554153,10.926788
2019-01-23 23:04:13,0.038254,-0.229889,0.068268,-0.254654,1.586655,10.121597
2019-01-23 23:04:13,0.038254,-0.229889,0.068268,-0.313263,1.961136,8.305450
2019-01-23 23:04:13,0.196777,-0.019089,-0.128540,-0.313263,1.961136,8.305450
2019-01-23 23:04:13,0.196777,-0.019089,-0.128540,-0.657837,1.657242,8.271957
2019-01-23 23:04:13,0.196777,-0.019089,-0.128540,-1.184250,1.451462,9.900269
2019-01-23 23:04:13,0.196777,-0.019089,-0.128540,-0.357544,0.901108,11.298874
2019-01-23 23:04:13,0.196777,-0.019089,-0.128540,0.227509,0.380676,11.605148
2019-01-23 23:04:13,0.196777,-0.019089,-0.128540,0.180862,0.517059,10.850220
2019-01-23 23:04:13,0.196777,-0.019089,-0.128540,-0.021347,1.205002,9.297272
2019-01-23 23:04:13,0.196777,-0.019089,-0.128540,-0.743973,2.223145,7.873535
2019-01-23 23:04:13,0.196777,-0.019089,-0.128540,-1.147171,2.692139,6.937958
2019-01-23 23:04:13,0.196777,-0.019089,-0.128540,-0.613571,2.065216,7.024094
2019-01-23 23:04:13,-0.039261,-0.143768,0.014633,-0.613571,2.065216,7.024094
2019-01-23 23:04:13,-0.039261,-0.143768,0.014633,-0.392227,1.683563,8.937149
2019-01-23 23:04:13,-0.039261,-0.143768,0.014633,-0.752350,1.732620,9.859589
2019-01-23 23:04:13,-0.039261,-0.143768,0.014633,-0.099106,1.395233,9.365479
2019-01-23 23:04:13,-0.039261,-0.143768,0.014633,-0.054840,0.865219,9.885910
2019-01-23 23:04:13,-0.039261,-0.143768,0.014633,-0.082367,0.720459,11.685303
2019-01-23 23:04:13,-0.039261,-0.143768,0.014633,-0.330017,1.063828,12.236862
2019-01-23 23:04:13,-0.039261,-0.143768,0.014633,-0.312073,1.173889,11.318008
2019-01-23 23:04:13,-0.039261,-0.143768,0.014633,-0.028519,1.356949,10.622894
2019-01-23 23:04:13,-0.039261,-0.143768,0.014633,-0.760727,2.169312,9.987595
2019-01-23 23:04:13,-0.039261,-0.143768,0.014633,-1.436707,2.773499,8.489700
2019-01-23 23:04:13,0.030869,-0.065933,0.068024,-1.436707,2.773499,8.489700
2019-01-23 23:04:13,0.030869,-0.065933,0.068024,-0.589645,2.029327,8.161880
2019-01-23 23:04:13,0.030869,-0.065933,0.068024,0.664200,0.776688,9.753098
2019-01-23 23:04:13,0.030869,-0.065933,0.068024,0.704880,0.563721,11.182816
2019-01-23 23:04:13,0.030869,-0.065933,0.068024,0.220337,1.208588,10.559494
2019-01-23 23:04:13,0.030869,-0.065933,0.068024,-0.278580,2.030518,8.537552
2019-01-23 23:04:13,0.030869,-0.065933,0.068024,-0.623138,2.378677,7.422501
2019-01-23 23:04:13,0.030869,-0.065933,0.068024,-0.341995,2.050858,8.151108
2019-01-23 23:04:13,0.030869,-0.065933,0.068024,0.249054,1.256454,9.918213
2019-01-23 23:04:13,0.030869,-0.065933,0.068024,0.591217,0.745575,11.523804
2019-01-23 23:04:13,0.035507,-0.048294,0.007065,0.591217,0.745575,11.523804
2019-01-23 23:04:13,0.035507,-0.048294,0.007065,0.362717,1.167908,11.731964
2019-01-23 23:04:13,0.035507,-0.048294,0.007065,-0.064423,2.036499,10.339340
2019-01-23 23:04:13,0.035507,-0.048294,0.007065,-0.542984,2.533020,8.933563
2019-01-23 23:04:13,0.035507,-0.048294,0.007065,-0.541794,2.320053,9.050812
2019-01-23 23:04:13,0.035507,-0.048294,0.007065,0.338776,1.506500,10.047424
2019-01-23 23:04:13,0.035507,-0.048294,0.007065,0.948944,0.733612,11.274948
2019-01-23 23:04:13,0.035507,-0.048294,0.007065,1.169083,0.320847,11.912628
2019-01-23 23:04:13,0.035507,-0.048294,0.007065,1.099701,0.575684,11.379028
2019-01-23 23:04:13,0.035507,-0.048294,0.007065,0.518234,1.325836,10.216110
2019-01-23 23:04:13,0.035507,-0.048294,0.007065,-0.546570,2.269806,8.359283
2019-01-23 23:04:13,0.074051,0.127747,-0.018341,-0.546570,2.269806,8.359283
2019-01-23 23:04:13,0.074051,0.127747,-0.018341,-0.974884,2.718460,6.649612
2019-01-23 23:04:13,0.074051,0.127747,-0.018341,-1.179474,2.616760,6.527573
2019-01-23 23:04:13,0.074051,0.127747,-0.018341,-1.314667,2.494736,7.178421
2019-01-23 23:04:13,0.074051,0.127747,-0.018341,-1.271591,2.159744,8.189392
2019-01-23 23:04:13,0.074051,0.127747,-0.018341,-0.531021,0.909485,9.641846
2019-01-23 23:04:13,0.074051,0.127747,-0.018341,0.599594,-0.024918,11.353912
2019-01-23 23:04:13,0.074051,0.127747,-0.018341,0.392609,0.692932,12.148315
2019-01-23 23:04:13,0.074051,0.127747,-0.018341,-0.636307,2.276978,10.143127
2019-01-23 23:04:13,0.074051,0.127747,-0.018341,-0.608780,2.852463,7.953705
2019-01-23 23:04:13,0.071732,0.039551,0.085129,-0.608780,2.852463,7.953705
2019-01-23 23:04:13,0.071732,0.039551,0.085129,-0.099121,2.328430,8.433456
2019-01-23 23:04:13,0.071732,0.039551,0.085129,0.283737,1.842682,10.926788
2019-01-23 23:04:13,0.071732,0.039551,0.085129,0.341171,1.829529,11.673340
2019-01-23 23:04:14,0.071732,0.039551,0.085129,-0.017761,1.663223,10.802368
2019-01-23 23:04:15,0.071732,0.039551,0.085129,-0.241486,1.816360,10.137161
2019-01-23 23:04:15,0.071732,0.039551,0.085129,0.042068,1.882172,9.278137
2019-01-23 23:04:15,0.071732,0.039551,0.085129,0.647461,1.260040,8.744537
2019-01-23 23:04:15,0.071732,0.039551,0.085129,0.838882,0.531418,9.537750
2019-01-23 23:04:15,0.071732,0.039551,0.085129,0.484741,0.487152,9.836853
2019-01-23 23:04:15,0.071732,0.039551,0.085129,-0.193634,1.196625,8.985001
2019-01-23 23:04:15,0.071732,0.039551,0.085129,-0.763123,2.047272,8.380814
2019-01-23 23:04:15,0.071732,0.039551,0.085129,-0.866013,2.728027,7.593582
2019-01-23 23:04:15,0.071732,0.039551,0.085129,-0.851654,2.844086,7.137756
2019-01-23 23:04:15,0.071732,0.039551,0.085129,-0.387451,2.293732,8.626083
2019-01-23 23:04:15,0.071732,0.039551,0.085129,0.585236,1.333008,11.217514
2019-01-23 23:04:15,0.071732,0.039551,0.085129,1.325821,0.935806,12.247620
2019-01-23 23:04:15,0.071732,0.039551,0.085129,0.840073,1.315063,11.584808
2019-01-23 23:04:15,0.071732,0.039551,0.085129,0.213165,1.855850,9.897873
2019-01-23 23:04:15,0.071732,0.039551,0.085129,-0.078766,1.981476,8.069763
2019-01-23 23:04:15,-0.007187,0.083466,-0.051147,-0.078766,1.981476,8.069763
2019-01-23 23:04:15,-0.007187,0.083466,-0.051147,0.313660,1.380875,7.556488
2019-01-23 23:04:15,-0.007187,0.083466,-0.051147,0.502686,0.722855,8.903656
2019-01-23 23:04:15,-0.007187,0.083466,-0.051147,-0.320450,0.969315,10.031860
2019-01-23 23:04:15,-0.007187,0.083466,-0.051147,-1.131622,1.652466,9.449219
2019-01-23 23:04:15,-0.007187,0.083466,-0.051147,-1.352951,1.988647,8.713425
2019-01-23 23:04:15,-0.007187,0.083466,-0.051147,-1.053848,1.621353,9.305649
2019-01-23 23:04:15,-0.007187,0.083466,-0.051147,-0.869598,1.239700,10.669556
2019-01-23 23:04:15,-0.007187,0.083466,-0.051147,-0.470001,0.799408,12.023895
2019-01-23 23:04:15,-0.007187,0.083466,-0.051147,0.064804,0.141388,12.732178
2019-01-23 23:04:15,-0.007187,0.083466,-0.051147,-0.215164,0.121048,12.598175
2019-01-23 23:04:15,-0.148056,0.150909,-0.168732,-0.215164,0.121048,12.598175
2019-01-23 23:04:15,-0.148056,0.150909,-0.168732,-0.519058,0.301712,10.986603
2019-01-23 23:04:15,-0.148056,0.150909,-0.168732,-0.526230,0.294540,8.655991
2019-01-23 23:04:15,-0.148056,0.150909,-0.168732,-0.793030,0.112671,7.557693
2019-01-23 23:04:15,-0.148056,0.150909,-0.168732,-1.191437,-0.071579,8.097275
2019-01-23 23:04:15,-0.148056,0.150909,-0.168732,-1.431915,0.310089,8.810333
2019-01-23 23:04:15,-0.148056,0.150909,-0.168732,-1.884171,0.952560,8.748123
2019-01-23 23:04:15,-0.148056,0.150909,-0.168732,-1.874588,1.207397,8.684708
2019-01-23 23:04:15,-0.148056,0.150909,-0.168732,-1.340988,0.886749,9.342743
2019-01-23 23:04:15,-0.148056,0.150909,-0.168732,-0.899506,0.775497,10.351303
2019-01-23 23:04:15,0.063232,0.123245,-0.095123,-0.899506,0.775497,10.351303
2019-01-23 23:04:15,0.063232,0.123245,-0.095123,-0.474792,0.925034,10.643234
2019-01-23 23:04:15,0.063232,0.123245,-0.095123,-0.436508,1.161926,10.395584
2019-01-23 23:04:15,0.063232,0.123245,-0.095123,0.146164,0.834122,9.885910
2019-01-23 23:04:15,0.063232,0.123245,-0.095123,0.612747,0.272995,9.887100
2019-01-23 23:04:15,0.063232,0.123245,-0.095123,-0.101517,0.213181,10.585800
2019-01-23 23:04:15,0.063232,0.123245,-0.095123,-0.850464,0.728836,10.231674
2019-01-23 23:04:15,0.063232,0.123245,-0.095123,-1.260834,1.411987,9.079529
2019-01-23 23:04:15,0.063232,0.123245,-0.095123,-1.480972,1.673996,8.060181
2019-01-23 23:04:15,0.063232,0.123245,-0.095123,-1.485748,1.804398,7.930969
2019-01-23 23:04:15,0.063232,0.123245,-0.095123,-1.533615,1.907288,8.480118
2019-01-23 23:04:15,-0.004501,-0.090744,-0.117310,-1.533615,1.907288,8.480118
2019-01-23 23:04:15,-0.004501,-0.090744,-0.117310,-1.315857,1.768509,9.138153
2019-01-23 23:04:15,-0.004501,-0.090744,-0.117310,-0.249863,0.655853,10.290298
2019-01-23 23:04:15,-0.004501,-0.090744,-0.117310,0.811356,-0.398193,12.820709
2019-01-23 23:04:15,-0.004501,-0.090744,-0.117310,0.694122,-0.143356,14.147522
2019-01-23 23:04:15,-0.004501,-0.090744,-0.117310,0.027710,0.746780,11.709244
2019-01-23 23:04:15,-0.004501,-0.090744,-0.117310,-0.176880,1.295929,8.877335
2019-01-23 23:04:15,-0.004501,-0.090744,-0.117310,-0.257034,1.301910,7.785004
2019-01-23 23:04:15,-0.004501,-0.090744,-0.117310,-0.534607,1.280365,8.196564
2019-01-23 23:04:15,-0.004501,-0.090744,-0.117310,-0.581268,1.315063,8.282715
2019-01-23 23:04:15,0.040878,-0.233002,-0.049500,-0.581268,1.315063,8.282715
2019-01-23 23:04:15,0.040878,-0.233002,-0.049500,-0.490341,1.076981,8.320999
2019-01-23 23:04:15,0.040878,-0.233002,-0.049500,-0.097916,0.708496,9.838043
2019-01-23 23:04:15,0.040878,-0.233002,-0.049500,-0.015366,0.741989,11.408936
2019-01-23 23:04:15,0.040878,-0.233002,-0.049500,-0.260635,1.184662,11.277328
2019-01-23 23:04:15,0.040878,-0.233002,-0.049500,-0.419754,1.300720,10.887299
2019-01-23 23:04:15,0.040878,-0.233002,-0.049500,-0.374283,1.261230,10.820297
2019-01-23 23:04:15,0.040878,-0.233002,-0.049500,-0.358734,1.359344,10.127579
2019-01-23 23:04:15,0.040878,-0.233002,-0.049500,-0.547775,1.574692,9.004150
2019-01-23 23:04:15,0.040878,-0.233002,-0.049500,-0.489136,1.569901,7.843643
2019-01-23 23:04:15,0.040878,-0.233002,-0.049500,-0.207993,1.299515,7.447617
2019-01-23 23:04:15,0.051758,-0.069122,0.027466,-0.207993,1.299515,7.447617
2019-01-23 23:04:15,0.051758,-0.069122,0.027466,-0.046478,1.033920,8.234863
2019-01-23 23:04:15,0.051758,-0.069122,0.027466,-0.005798,0.960938,9.687302
2019-01-23 23:04:15,0.051758,-0.069122,0.027466,0.091125,1.050659,11.333572
2019-01-23 23:04:15,0.051758,-0.069122,0.027466,0.160507,1.210983,11.600357
2019-01-23 23:04:15,0.051758,-0.069122,0.027466,0.150940,1.297119,11.428085
2019-01-23 23:04:15,0.051758,-0.069122,0.027466,0.125824,1.321045,11.216324
2019-01-23 23:04:15,0.051758,-0.069122,0.027466,-0.173294,1.488556,10.512833
2019-01-23 23:04:15,0.051758,-0.069122,0.027466,-0.553757,1.909683,9.645432
2019-01-23 23:04:15,0.051758,-0.069122,0.027466,-0.830124,2.016174,8.618912
2019-01-23 23:04:15,0.093781,0.027634,0.115616,-0.830124,2.016174,8.618912
2019-01-23 23:04:15,0.093781,0.027634,0.115616,-0.538193,1.700317,8.154694
2019-01-23 23:04:17,0.093781,0.027634,0.115616,-0.228333,1.285156,9.042435
2019-01-23 23:04:17,0.093781,0.027634,0.115616,0.345963,0.891541,9.797379
2019-01-23 23:04:17,0.093781,0.027634,0.115616,0.808975,0.751556,10.409943
2019-01-23 23:04:17,0.093781,0.027634,0.115616,0.987228,0.934616,10.644440
2019-01-23 23:04:17,0.093781,0.027634,0.115616,1.027908,1.066223,9.896667
2019-01-23 23:04:17,0.093781,0.027634,0.115616,0.460815,1.317459,9.191986
2019-01-23 23:04:17,0.093781,0.027634,0.115616,-0.541779,1.719452,8.567459
2019-01-23 23:04:17,0.093781,0.027634,0.115616,-0.911484,1.888153,7.798172
2019-01-23 23:04:17,0.093781,0.027634,0.115616,-0.405396,1.665619,7.940536
2019-01-23 23:04:17,0.060303,0.097214,-0.078384,-0.405396,1.665619,7.940536
2019-01-23 23:04:17,0.060303,0.097214,-0.078384,-0.175690,1.459839,9.188400
2019-01-23 23:04:17,0.060303,0.097214,-0.078384,-0.347961,1.478973,10.261581
2019-01-23 23:04:17,0.060303,0.097214,-0.078384,-0.176880,1.648865,10.426682
2019-01-23 23:04:17,0.060303,0.097214,-0.078384,0.003784,1.830719,10.149124
2019-01-23 23:04:17,0.060303,0.097214,-0.078384,0.003784,1.936005,10.261581
2019-01-23 23:04:17,0.060303,0.097214,-0.078384,0.081543,1.993439,10.283112
2019-01-23 23:04:17,0.060303,0.097214,-0.078384,-0.041687,1.994629,9.476730
2019-01-23 23:04:17,0.060303,0.097214,-0.078384,-0.170898,1.860626,9.195587
2019-01-23 23:04:17,0.060303,0.097214,-0.078384,-0.196030,1.657242,9.454010
2019-01-23 23:04:17,0.060303,0.115234,-0.126953,-0.196030,1.657242,9.454010
2019-01-23 23:04:17,0.060303,0.115234,-0.126953,0.075562,1.279175,9.915817
2019-01-23 23:04:17,0.060303,0.115234,-0.126953,0.642670,0.854446,10.577438
2019-01-23 23:04:17,0.060303,0.115234,-0.126953,0.426117,0.945374,10.553497
2019-01-23 23:04:17,0.060303,0.115234,-0.126953,-0.291733,1.695526,10.055801
2019-01-23 23:04:17,0.060303,0.115234,-0.126953,-0.839691,2.369110,8.425095
2019-01-23 23:04:17,0.060303,0.115234,-0.126953,-0.679367,2.157349,7.394974
2019-01-23 23:04:17,0.060303,0.115234,-0.126953,-0.434113,1.490952,8.841446
2019-01-23 23:04:17,0.060303,0.115234,-0.126953,-0.304901,1.102112,10.601364
2019-01-23 23:04:17,0.060303,0.115234,-0.126953,-0.221146,1.124832,10.965073
2019-01-23 23:04:17,0.060303,0.115234,-0.126953,-0.264221,1.318649,10.299866
2019-01-23 23:04:17,-0.074692,-0.026962,-0.195984,-0.264221,1.318649,10.299866
2019-01-23 23:04:17,-0.074692,-0.026962,-0.195984,-0.453247,1.465820,9.978027
2019-01-23 23:04:17,-0.074692,-0.026962,-0.195984,-0.375488,1.414368,9.518616
2019-01-23 23:04:17,-0.074692,-0.026962,-0.195984,-0.588455,1.537598,9.426483
2019-01-23 23:04:17,-0.074692,-0.026962,-0.195984,-1.172302,1.804398,9.396576
2019-01-23 23:04:17,-0.074692,-0.026962,-0.195984,-0.441284,1.410782,8.841446
2019-01-23 23:04:17,-0.074692,-0.026962,-0.195984,-0.266617,1.049469,9.371445
2019-01-23 23:04:17,-0.074692,-0.026962,-0.195984,-1.070602,1.335419,10.432663
2019-01-23 23:04:17,-0.074692,-0.026962,-0.195984,-1.067017,1.740997,9.602356
2019-01-23 23:04:17,-0.074692,-0.026962,-0.195984,-0.484360,1.809189,8.462173
2019-01-23 23:04:17,-0.115677,-0.136246,-0.032211,-0.484360,1.809189,8.462173
2019-01-23 23:04:17,-0.115677,-0.136246,-0.032211,-0.237900,1.532822,9.012527
2019-01-23 23:04:17,-0.115677,-0.136246,-0.032211,-0.470001,1.490936,10.286713
2019-01-23 23:04:17,-0.115677,-0.136246,-0.032211,-0.651855,1.511276,10.230469
2019-01-23 23:04:17,-0.115677,-0.136246,-0.032211,-0.140991,1.080582,9.589203
2019-01-23 23:04:17,-0.115677,-0.136246,-0.032211,-0.011780,0.897522,10.369247
2019-01-23 23:04:17,-0.115677,-0.136246,-0.032211,-1.045471,1.725433,10.872955
2019-01-23 23:04:17,-0.115677,-0.136246,-0.032211,-1.589844,2.812973,9.500671
2019-01-23 23:04:17,-0.115677,-0.136246,-0.032211,-0.852859,2.907501,8.261185
2019-01-23 23:04:17,-0.115677,-0.136246,-0.032211,-0.258240,2.427734,9.281723
2019-01-23 23:04:17,0.067520,-0.227936,0.083908,-0.258240,2.427734,9.281723
2019-01-23 23:04:17,0.067520,-0.227936,0.083908,-0.179276,2.158539,10.997375
2019-01-23 23:04:17,0.067520,-0.227936,0.083908,0.117447,2.115479,11.271347
2019-01-23 23:04:17,0.067520,-0.227936,0.083908,0.828110,1.766113,9.554504
2019-01-23 23:04:17,0.067520,-0.227936,0.083908,1.800797,0.694138,9.156097
2019-01-23 23:04:17,0.067520,-0.227936,0.083908,1.736191,0.097122,10.419510
2019-01-23 23:04:17,0.067520,-0.227936,0.083908,0.417740,0.812576,10.439850
2019-01-23 23:04:17,0.067520,-0.227936,0.083908,-0.950958,2.005402,7.972855
2019-01-23 23:04:17,0.067520,-0.227936,0.083908,-0.916260,2.503113,5.538147
2019-01-23 23:04:17,0.067520,-0.227936,0.083908,-0.814575,2.108292,6.905640
2019-01-23 23:04:17,0.067520,-0.227936,0.083908,-1.172302,1.987457,9.375046
2019-01-23 23:04:17,-0.225571,-0.188782,0.087631,-1.172302,1.987457,9.375046
2019-01-23 23:04:17,-0.225571,-0.188782,0.087631,-1.388855,2.150162,9.574844
2019-01-23 23:04:17,-0.225571,-0.188782,0.087631,-0.783463,2.083176,8.776840
2019-01-23 23:04:17,-0.225571,-0.188782,0.087631,0.030106,1.228928,9.578430
2019-01-23 23:04:17,-0.225571,-0.188782,0.087631,0.497910,0.445282,12.279922
2019-01-23 23:04:17,-0.225571,-0.188782,0.087631,-0.356354,1.080582,13.849625
2019-01-23 23:04:17,-0.225571,-0.188782,0.087631,-0.613571,1.709885,12.289505
2019-01-23 23:04:17,-0.225571,-0.188782,0.087631,0.409363,1.458633,10.603760
2019-01-23 23:04:17,-0.225571,-0.188782,0.087631,0.112656,1.618958,10.386002
2019-01-23 23:04:17,-0.225571,-0.188782,0.087631,-0.839691,2.415771,9.422897
2019-01-23 23:04:17,-0.124054,-0.000214,0.255127,-0.839691,2.415771,9.422897
2019-01-23 23:04:17,-0.124054,-0.000214,0.255127,-0.638702,2.640686,6.671143
2019-01-23 23:04:17,-0.124054,-0.000214,0.255127,-0.166107,2.020950,5.831268
2019-01-23 23:04:17,-0.124054,-0.000214,0.255127,-0.261826,1.474197,7.365067
2019-01-23 23:04:17,-0.124054,-0.000214,0.255127,-0.090744,1.260040,8.757690
2019-01-23 23:04:17,-0.124054,-0.000214,0.255127,0.225128,1.021942,9.885910
2019-01-23 23:04:17,-0.124054,-0.000214,0.255127,0.292130,0.842484,12.283508
2019-01-23 23:04:17,-0.124054,-0.000214,0.255127,0.509872,0.889145,14.112839
2019-01-23 23:04:17,-0.124054,-0.000214,0.255127,0.582855,1.303101,14.120010
2019-01-23 23:04:17,-0.124054,-0.000214,0.255127,-0.228333,2.267410,12.473740
2019-01-23 23:04:17,-0.124054,-0.000214,0.255127,-1.011978,3.112076,9.474335
2019-01-23 23:04:17,0.187485,0.113220,0.181763,-1.011978,3.112076,9.474335
2019-01-23 23:04:17,0.187485,0.113220,0.181763,-0.570496,3.029526,6.891296
2019-01-23 23:04:17,0.187485,0.113220,0.181763,0.124619,2.025742,7.004944
2019-01-23 23:04:17,0.187485,0.113220,0.181763,0.190430,1.074585,8.259979
2019-01-23 23:04:17,0.187485,0.113220,0.181763,-0.030914,0.594833,8.901260
2019-01-23 23:04:17,0.187485,0.113220,0.181763,0.014557,0.630722,8.975449
2019-01-23 23:04:17,0.187485,0.113220,0.181763,0.100693,0.974091,8.414322
2019-01-23 23:04:17,0.187485,0.113220,0.181763,-0.041687,1.391632,9.337952
2019-01-23 23:04:17,0.187485,0.113220,0.181763,-0.489136,1.885757,11.085907
2019-01-23 23:04:17,0.187485,0.113220,0.181763,-0.306091,2.390640,11.379028
2019-01-23 23:04:17,0.142410,0.117676,0.092712,-0.306091,2.390640,11.379028
2019-01-23 23:04:17,0.142410,0.117676,0.092712,0.374680,2.184860,10.735352
2019-01-23 23:04:17,0.142410,0.117676,0.092712,0.852036,1.833115,11.058380
2019-01-23 23:04:17,0.142410,0.117676,0.092712,0.234695,1.946777,11.515427
2019-01-23 23:04:17,0.142410,0.117676,0.092712,-0.152954,2.121445,10.234055
2019-01-23 23:04:17,0.142410,0.117676,0.092712,-0.078781,1.928833,8.854599
2019-01-23 23:04:17,0.142410,0.117676,0.092712,-0.223541,1.676376,8.438248
2019-01-23 23:04:17,0.142410,0.117676,0.092712,-0.557343,1.797226,8.353302
2019-01-23 23:04:17,0.142410,0.117676,0.092712,-0.635117,1.951553,7.946518
2019-01-23 23:04:17,0.142410,0.117676,0.092712,-0.006989,1.475388,8.420303
2019-01-23 23:04:17,0.142410,0.117676,0.092712,0.216751,0.931015,10.539139
2019-01-23 23:04:17,0.090302,0.184326,-0.100937,0.216751,0.931015,10.539139
2019-01-23 23:04:17,0.090302,0.184326,-0.100937,-0.008194,1.257645,12.197372
2019-01-23 23:04:17,0.090302,0.184326,-0.100937,-0.069199,1.776886,11.240250
2019-01-23 23:04:17,0.090302,0.184326,-0.100937,-0.017761,1.959930,9.629883
2019-01-23 23:04:17,0.090302,0.184326,-0.100937,-0.533417,2.261429,9.160889
2019-01-23 23:04:17,0.090302,0.184326,-0.100937,-0.919861,2.497116,8.822296
2019-01-23 23:04:17,0.090302,0.184326,-0.100937,-0.375488,2.104706,8.136749
2019-01-23 23:04:17,0.090302,0.184326,-0.100937,-0.138596,1.756546,7.807739
2019-01-23 23:04:17,0.090302,0.184326,-0.100937,-0.552551,1.821152,8.557892
2019-01-23 23:04:17,0.090302,0.184326,-0.100937,-0.328827,1.677582,9.341537
2019-01-23 23:04:17,-0.001144,-0.010590,-0.112717,-0.328827,1.677582,9.341537
2019-01-23 23:04:17,-0.001144,-0.010590,-0.112717,0.339981,1.147583,9.914627
2019-01-23 23:04:17,-0.001144,-0.010590,-0.112717,0.446457,0.983673,11.356293
2019-01-23 23:04:17,-0.001144,-0.010590,-0.112717,0.274170,1.153549,12.216507
2019-01-23 23:04:17,-0.001144,-0.010590,-0.112717,0.156921,1.518463,11.063171
2019-01-23 23:04:17,-0.001144,-0.010590,-0.112717,-0.156540,1.819946,9.456390
2019-01-23 23:04:17,-0.001144,-0.010590,-0.112717,-0.496323,1.919266,8.640442
2019-01-23 23:04:17,-0.001144,-0.010590,-0.112717,-0.705688,1.967117,8.240845
2019-01-23 23:04:17,-0.001144,-0.010590,-0.112717,-0.678177,2.024536,8.011124
2019-01-23 23:04:17,-0.001144,-0.010590,-0.112717,-0.028519,1.602203,8.393982
2019-01-23 23:04:17,-0.001144,-0.010590,-0.112717,0.203583,1.431122,9.696869
2019-01-23 23:04:17,-0.001144,-0.010590,-0.112717,-0.557343,2.166916,10.003159
2019-01-23 23:04:17,-0.001144,-0.010590,-0.112717,-0.675781,2.692139,8.798370
2019-01-23 23:04:17,-0.001144,-0.010590,-0.112717,0.485931,1.959930,8.681122
2019-01-23 23:04:17,-0.001144,-0.010590,-0.112717,0.990814,0.981262,11.133774
2019-01-23 23:04:17,-0.001144,-0.010590,-0.112717,0.556519,0.855652,13.207153
2019-01-23 23:04:17,-0.001144,-0.010590,-0.112717,0.007370,1.452652,11.881516
2019-01-23 23:04:17,-0.001144,-0.010590,-0.112717,-0.408981,2.086761,9.686096
2019-01-23 23:04:17,-0.001144,-0.010590,-0.112717,-0.633911,2.218353,8.839050
2019-01-23 23:04:17,-0.001144,-0.010590,-0.112717,-0.264221,1.797226,8.561478
2019-01-23 23:04:17,0.005569,-0.120728,-0.095428,-0.264221,1.797226,8.561478
2019-01-23 23:04:17,0.005569,-0.120728,-0.095428,-0.359940,1.604599,8.888107
2019-01-23 23:04:17,0.005569,-0.120728,-0.095428,-0.688950,1.858246,8.883316
2019-01-23 23:04:17,0.005569,-0.120728,-0.095428,-0.730820,2.053253,8.421494
2019-01-23 23:04:17,0.005569,-0.120728,-0.095428,-0.395828,1.848663,8.250412
2019-01-23 23:04:17,0.005569,-0.120728,-0.095428,0.099487,1.273193,8.933563
2019-01-23 23:04:17,0.005569,-0.120728,-0.095428,0.636688,0.548172,10.254395
2019-01-23 23:04:17,0.005569,-0.120728,-0.095428,0.855637,0.477585,11.529770
2019-01-23 23:04:17,0.005569,-0.120728,-0.095428,0.135391,1.421555,11.242630
2019-01-23 23:04:17,0.005569,-0.120728,-0.095428,-0.306091,2.477982,9.649017
2019-01-23 23:04:17,0.005569,-0.120728,-0.095428,-0.418549,2.848862,9.201553
2019-01-23 23:04:17,-0.097107,-0.163300,-0.032272,-0.418549,2.848862,9.201553
2019-01-23 23:04:17,-0.097107,-0.163300,-0.032272,-0.385056,2.863235,10.352509
2019-01-23 23:04:17,-0.097107,-0.163300,-0.032272,0.546951,2.107101,10.333374
2019-01-23 23:04:17,-0.097107,-0.163300,-0.032272,0.885544,1.066208,9.869156
2019-01-23 23:04:17,-0.097107,-0.163300,-0.032272,0.574463,0.554153,9.450409
2019-01-23 23:04:17,-0.097107,-0.163300,-0.032272,0.054031,0.805405,8.389206
2019-01-23 23:04:17,-0.097107,-0.163300,-0.032272,-0.216370,1.420349,8.306641
2019-01-23 23:04:17,-0.097107,-0.163300,-0.032272,-0.175690,1.770905,8.921600
2019-01-23 23:04:17,-0.097107,-0.163300,-0.032272,-0.322845,1.885757,9.647827
2019-01-23 23:04:17,-0.097107,-0.163300,-0.032272,-0.083557,1.877380,10.016312
2019-01-23 23:04:17,-0.018127,-0.114807,-0.013458,-0.083557,1.877380,10.016312
2019-01-23 23:04:17,-0.018127,-0.114807,-0.013458,-0.062027,2.035309,10.819107
2019-01-23 23:04:17,-0.018127,-0.114807,-0.013458,-0.090744,2.040100,11.587204
2019-01-23 23:04:17,-0.018127,-0.114807,-0.013458,-0.107483,1.904907,11.185211
2019-01-23 23:04:17,-0.018127,-0.114807,-0.013458,-0.056046,1.822357,10.109634
2019-01-23 23:04:17,-0.018127,-0.114807,-0.013458,0.196411,1.840286,9.304459
2019-01-23 23:04:17,-0.018127,-0.114807,-0.013458,0.703674,1.702713,8.644028
2019-01-23 23:04:17,-0.018127,-0.114807,-0.013458,0.807770,1.696716,8.897675
2019-01-23 23:04:17,-0.018127,-0.114807,-0.013458,0.282547,1.930023,9.705246
2019-01-23 23:04:17,-0.018127,-0.114807,-0.013458,0.033691,2.243484,9.262573
2019-01-23 23:04:17,-0.018127,-0.114807,-0.013458,0.012161,2.363129,8.644028
2019-01-23 23:04:17,0.150894,0.047729,0.078293,0.012161,2.363129,8.644028
2019-01-23 23:04:17,0.150894,0.047729,0.078293,-0.173294,2.335617,9.116608
2019-01-23 23:04:17,0.150894,0.047729,0.078293,0.025314,2.109497,9.698074
2019-01-23 23:04:17,0.150894,0.047729,0.078293,0.362701,1.944382,10.055801
2019-01-23 23:04:17,0.150894,0.047729,0.078293,0.174881,1.958740,10.378830
2019-01-23 23:04:17,0.150894,0.047729,0.078293,0.336395,1.815170,10.591797
2019-01-23 23:04:17,0.150894,0.047729,0.078293,0.946564,1.478973,11.651810
2019-01-23 23:04:17,0.150894,0.047729,0.078293,0.944168,1.379684,12.089691
2019-01-23 23:04:17,0.150894,0.047729,0.078293,0.240677,1.865417,10.825089
2019-01-23 23:04:17,0.150894,0.047729,0.078293,-0.334808,2.444489,8.295868
2019-01-23 23:04:18,0.020477,-0.001740,0.061859,-0.334808,2.444489,8.295868
2019-01-23 23:04:18,0.020477,-0.001740,0.061859,-0.286957,2.717270,6.527573
2019-01-23 23:04:18,0.020477,-0.001740,0.061859,-0.182861,2.548569,6.789597
2019-01-23 23:04:18,0.020477,-0.001740,0.061859,-0.004608,2.126236,8.523193
2019-01-23 23:04:18,0.020477,-0.001740,0.061859,0.077957,2.137009,9.445633
2019-01-23 23:04:18,0.020477,-0.001740,0.061859,0.160507,2.247070,9.237457
2019-01-23 23:04:18,0.020477,-0.001740,0.061859,0.519440,1.995819,9.370255
2019-01-23 23:04:18,0.020477,-0.001740,0.061859,0.867599,1.712280,10.016312
2019-01-23 23:04:18,0.020477,-0.001740,0.061859,0.601990,2.016159,10.201767
2019-01-23 23:04:18,0.020477,-0.001740,0.061859,0.064804,2.483963,9.379822
2019-01-23 23:04:18,0.020477,-0.001740,0.061859,0.069580,2.433716,9.401352
2019-01-23 23:04:18,-0.122879,0.051041,0.006760,0.069580,2.433716,9.401352
2019-01-23 23:04:18,-0.122879,0.051041,0.006760,0.568481,2.263824,10.523590
2019-01-23 23:04:18,-0.122879,0.051041,0.006760,0.643860,2.147766,10.789200
2019-01-23 23:04:18,-0.122879,0.051041,0.006760,0.733597,1.965927,10.324982
2019-01-23 23:04:18,-0.122879,0.051041,0.006760,0.444061,2.123840,9.401352
2019-01-23 23:04:18,-0.122879,0.051041,0.006760,-0.217560,2.391830,8.429871
2019-01-23 23:04:18,-0.122879,0.051041,0.006760,-0.478378,2.701706,8.031479
2019-01-23 23:04:18,-0.122879,0.051041,0.006760,-0.304901,2.588058,8.594971
2019-01-23 23:04:18,-0.122879,0.051041,0.006760,0.379456,1.897720,9.548523
2019-01-23 23:04:18,-0.122879,0.051041,0.006760,0.523026,1.094940,10.630081
2019-01-23 23:04:18,0.042465,0.113708,-0.054749,0.523026,1.094940,10.630081
2019-01-23 23:04:18,0.042465,0.113708,-0.054749,0.549347,0.911880,10.795181
2019-01-23 23:04:18,0.042465,0.113708,-0.054749,0.052841,1.496918,9.134567
2019-01-23 23:04:18,0.042465,0.113708,-0.054749,-0.834915,2.183670,7.479919
2019-01-23 23:04:18,0.042465,0.113708,-0.054749,-0.989243,2.373901,7.042038
2019-01-23 23:04:18,0.042465,0.113708,-0.054749,-0.537003,1.713470,8.420303
2019-01-23 23:04:18,0.042465,0.113708,-0.054749,-0.015366,0.921448,10.802353
2019-01-23 23:04:18,0.042465,0.113708,-0.054749,0.208374,0.801804,12.105255
2019-01-23 23:04:18,0.042465,0.113708,-0.054749,-0.069199,1.435898,11.882721
2019-01-23 23:04:18,0.042465,0.113708,-0.054749,-0.644684,2.059235,10.875336
2019-01-23 23:04:18,0.042465,0.113708,-0.054749,-0.871994,2.198013,10.380020
2019-01-23 23:04:18,-0.029251,0.111389,0.195633,-0.871994,2.198013,10.380020
2019-01-23 23:04:18,-0.029251,0.111389,0.195633,-0.709290,2.152557,10.127579
2019-01-23 23:04:18,-0.029251,0.111389,0.195633,-0.146973,1.876190,9.787796
2019-01-23 23:04:18,-0.029251,0.111389,0.195633,1.237289,1.280380,9.176437
2019-01-23 23:04:18,-0.029251,0.111389,0.195633,2.213562,0.635498,8.665573
2019-01-23 23:04:18,-0.029251,0.111389,0.195633,1.667984,0.435699,8.836655
2019-01-23 23:04:18,-0.029251,0.111389,0.195633,0.761108,0.733612,8.391586
2019-01-23 23:04:18,-0.029251,0.111389,0.195633,0.134186,1.358139,7.928574
2019-01-23 23:04:18,-0.029251,0.111389,0.195633,-0.404205,1.787659,8.853409
2019-01-23 23:04:18,-0.029251,0.111389,0.195633,-0.877975,2.061630,9.938553
2019-01-23 23:04:18,0.039963,0.044861,-0.108444,-0.877975,2.061630,9.938553
2019-01-23 23:04:18,0.039963,0.044861,-0.108444,-0.967712,2.306900,10.498474
2019-01-23 23:04:18,0.039963,0.044861,-0.108444,-0.590836,2.439697,10.851410
2019-01-23 23:04:18,0.039963,0.044861,-0.108444,-0.133804,2.171707,11.328781
2019-01-23 23:04:18,0.039963,0.044861,-0.108444,0.450043,1.775696,11.350311
2019-01-23 23:04:18,0.039963,0.044861,-0.108444,0.616348,1.703903,10.308243
2019-01-23 23:04:18,0.039963,0.044861,-0.108444,0.615143,1.632111,9.080719
2019-01-23 23:04:18,0.039963,0.044861,-0.108444,0.702484,1.409592,8.640442
2019-01-23 23:04:18,0.039963,0.044861,-0.108444,0.082748,1.567505,8.947922
2019-01-23 23:04:18,0.039963,0.044861,-0.108444,-0.921051,2.387054,8.769653
2019-01-23 23:04:18,0.039963,0.044861,-0.108444,-1.171097,2.809387,8.076935
2019-01-23 23:04:19,0.176132,-0.006012,-0.144119,-1.171097,2.809387,8.076935
2019-01-23 23:04:19,0.176132,-0.006012,-0.144119,-0.321640,2.156143,8.072144
2019-01-23 23:04:19,0.176132,-0.006012,-0.144119,0.115051,1.446671,10.128784
2019-01-23 23:04:19,0.176132,-0.006012,-0.144119,0.249054,1.648865,11.251007
2019-01-23 23:04:19,0.176132,-0.006012,-0.144119,0.077957,2.412186,9.564072
2019-01-23 23:04:19,0.176132,-0.006012,-0.144119,-0.205597,3.029526,8.053009
2019-01-23 23:04:19,0.176132,-0.006012,-0.144119,-0.224747,2.810593,7.607941
2019-01-23 23:04:19,0.176132,-0.006012,-0.144119,0.115051,2.006592,8.927582
2019-01-23 23:04:19,0.176132,-0.006012,-0.144119,0.625916,1.279175,10.596573
2019-01-23 23:04:19,0.176132,-0.006012,-0.144119,0.737183,1.142792,11.225891
2019-01-23 23:04:19,-0.183853,-0.064468,-0.004181,0.737183,1.142792,11.225891
2019-01-23 23:04:19,-0.183853,-0.064468,-0.004181,-0.181671,1.693130,10.683914
2019-01-23 23:04:19,-0.183853,-0.064468,-0.004181,-1.154343,2.433716,9.871552
2019-01-23 23:04:19,-0.183853,-0.064468,-0.004181,-0.728424,2.085556,8.979019
2019-01-23 23:04:19,-0.183853,-0.064468,-0.004181,-0.221146,1.349762,9.973251
2019-01-23 23:04:19,-0.183853,-0.064468,-0.004181,-0.359940,1.507690,11.814529
2019-01-23 23:04:19,-0.183853,-0.064468,-0.004181,-0.432922,2.097519,10.602554
2019-01-23 23:04:19,-0.183853,-0.064468,-0.004181,-0.748764,2.485168,8.658386
2019-01-23 23:04:19,-0.183853,-0.064468,-0.004181,-0.857635,2.296127,7.889099
2019-01-23 23:04:19,-0.183853,-0.064468,-0.004181,-0.145782,1.269608,8.523193
2019-01-23 23:04:19,-0.183853,-0.064468,-0.004181,0.645065,0.016968,9.984009
2019-01-23 23:04:19,0.128601,0.061111,-0.076324,0.645065,0.016968,9.984009
2019-01-23 23:04:19,0.128601,0.061111,-0.076324,1.121231,-0.540573,11.546524
2019-01-23 23:04:19,0.128601,0.061111,-0.076324,0.950150,-0.268982,11.377838
2019-01-23 23:04:19,0.128601,0.061111,-0.076324,0.137787,0.617569,9.388199
2019-01-23 23:04:19,0.128601,0.061111,-0.076324,-0.753555,1.603409,7.909439
2019-01-23 23:04:19,0.128601,0.061111,-0.076324,-1.168701,2.345184,7.137741
2019-01-23 23:04:19,0.128601,0.061111,-0.076324,-1.324234,2.665817,7.688095
2019-01-23 23:04:19,0.128601,0.061111,-0.076324,-0.834900,2.404999,9.406143
2019-01-23 23:04:19,0.128601,0.061111,-0.076324,0.079163,1.817566,11.924591
2019-01-23 23:04:19,0.128601,0.061111,-0.076324,0.524231,1.784073,12.805145
2019-01-23 23:04:19,-0.063873,-0.089523,0.048233,0.524231,1.784073,12.805145
2019-01-23 23:04:19,-0.063873,-0.089523,0.048233,0.470383,2.206406,10.820313
2019-01-23 23:04:19,-0.063873,-0.089523,0.048233,0.237091,2.651459,8.650024
2019-01-23 23:04:19,-0.063873,-0.089523,0.048233,-0.016571,2.908691,7.548111
2019-01-23 23:04:19,-0.063873,-0.089523,0.048233,0.013367,2.725632,8.267166
2019-01-23 23:04:19,-0.063873,-0.089523,0.048233,0.231110,2.298523,9.510239
2019-01-23 23:04:19,-0.063873,-0.089523,0.048233,0.412964,1.877380,10.436264
2019-01-23 23:04:19,-0.063873,-0.089523,0.048233,0.729996,1.644073,10.993790
2019-01-23 23:04:19,-0.063873,-0.089523,0.048233,0.636688,2.180084,10.686310
2019-01-23 23:04:19,-0.063873,-0.089523,0.048233,-0.401810,3.286758,9.783020
2019-01-23 23:04:19,-0.063873,-0.089523,0.048233,-0.233124,3.542786,8.874939
2019-01-23 23:04:19,0.096832,-0.044006,-0.186874,-0.233124,3.542786,8.874939
2019-01-23 23:04:19,0.096832,-0.044006,-0.186874,0.940567,2.436111,9.299667
2019-01-23 23:04:19,0.096832,-0.044006,-0.186874,1.451447,1.583069,11.179230
2019-01-23 23:04:19,0.096832,-0.044006,-0.186874,0.901093,1.755341,11.723602
2019-01-23 23:04:19,0.096832,-0.044006,-0.186874,0.371078,2.048477,10.246017
2019-01-23 23:04:19,0.096832,-0.044006,-0.186874,-0.432922,2.519867,8.976639
2019-01-23 23:04:19,0.096832,-0.044006,-0.186874,-1.233307,3.169510,7.805344
2019-01-23 23:04:19,0.096832,-0.044006,-0.186874,-0.943787,3.170700,6.748917
2019-01-23 23:04:19,0.096832,-0.044006,-0.186874,-0.252258,2.373901,7.661774
2019-01-23 23:04:19,0.096832,-0.044006,-0.186874,0.337585,1.690750,9.450409
2019-01-23 23:04:20,-0.107178,0.084625,-0.029465,0.337585,1.690750,9.450409
2019-01-23 23:04:20,-0.107178,0.084625,-0.029465,0.174866,1.666809,10.682724
2019-01-23 23:04:20,-0.107178,0.084625,-0.029465,-0.173294,1.849869,10.731766
2019-01-23 23:04:20,-0.107178,0.084625,-0.029465,0.085144,1.647675,10.048630
2019-01-23 23:04:20,-0.107178,0.084625,-0.029465,0.025314,1.871399,10.210144
2019-01-23 23:04:20,-0.107178,0.084625,-0.029465,-0.667419,2.403809,10.362076
2019-01-23 23:04:20,-0.107178,0.084625,-0.029465,-0.699707,2.572495,9.471954
2019-01-23 23:04:20,-0.107178,0.084625,-0.029465,-0.337204,2.361923,8.584213
2019-01-23 23:04:20,-0.107178,0.084625,-0.029465,-0.176880,1.989853,8.755295
2019-01-23 23:04:20,-0.107178,0.084625,-0.029465,0.105484,1.696732,9.615524
2019-01-23 23:04:20,-0.107178,0.084625,-0.029465,-0.121841,1.681183,9.772247
2019-01-23 23:04:20,-0.178101,0.094345,0.093872,-0.121841,1.681183,9.772247
2019-01-23 23:04:21,-0.178101,0.094345,0.093872,-0.259430,1.652451,9.028076
2019-01-23 23:04:21,-0.178101,0.094345,0.093872,-0.425735,1.610580,8.784012
2019-01-23 23:04:21,-0.178101,0.094345,0.093872,-0.618362,1.738602,9.030472
2019-01-23 23:04:21,-0.178101,0.094345,0.093872,-1.032318,2.077179,8.733765
2019-01-23 23:04:21,-0.178101,0.094345,0.093872,-1.190247,2.302109,8.402359
2019-01-23 23:04:21,-0.178101,0.094345,0.093872,-0.736801,2.036499,8.610535
2019-01-23 23:04:21,-0.178101,0.094345,0.093872,0.261017,1.146378,10.554703
2019-01-23 23:04:21,-0.178101,0.094345,0.093872,0.953735,0.731216,12.163879
2019-01-23 23:04:21,-0.178101,0.094345,0.093872,0.721634,1.221741,11.761887
2019-01-23 23:04:21,0.108200,0.095016,-0.066544,0.721634,1.221741,11.761887
2019-01-23 23:04:21,0.108200,0.095016,-0.066544,0.051636,1.865417,10.268753
2019-01-23 23:04:21,0.108200,0.095016,-0.066544,-0.263031,1.975494,9.509048
2019-01-23 23:04:21,0.108200,0.095016,-0.066544,-0.417358,1.828339,10.056992
2019-01-23 23:04:21,0.108200,0.095016,-0.066544,-0.353958,1.694336,10.977036
2019-01-23 23:04:21,0.108200,0.095016,-0.066544,-0.070404,1.382065,10.908844
2019-01-23 23:04:21,0.108200,0.095016,-0.066544,-0.082367,1.511276,10.235260
2019-01-23 23:04:21,0.108200,0.095016,-0.066544,-0.598022,2.067612,8.800766
2019-01-23 23:04:21,0.108200,0.095016,-0.066544,-0.724838,2.119064,7.180817
2019-01-23 23:04:21,0.108200,0.095016,-0.066544,-0.361130,1.368912,7.188004
2019-01-23 23:04:21,0.108200,0.095016,-0.066544,-0.496323,0.645081,8.665573
2019-01-23 23:04:21,-0.071136,0.310699,-0.324936,-0.496323,0.645081,8.665573
2019-01-23 23:04:21,-0.071136,0.310699,-0.324936,-0.274994,0.618759,9.543732
2019-01-23 23:04:21,-0.071136,0.310699,-0.324936,-0.106293,0.686951,8.913223
2019-01-23 23:04:21,-0.071136,0.310699,-0.324936,0.319626,0.063629,8.805557
2019-01-23 23:04:21,-0.071136,0.310699,-0.324936,-0.273788,0.420151,9.471954
2019-01-23 23:04:21,-0.071136,0.310699,-0.324936,-1.867416,1.816360,9.945724
2019-01-23 23:04:21,-0.071136,0.310699,-0.324936,-1.678375,2.476776,8.263580
2019-01-23 23:04:21,-0.071136,0.310699,-0.324936,1.411957,0.966919,7.880722
2019-01-23 23:04:21,-0.071136,0.310699,-0.324936,1.662003,-0.699692,11.954498
2019-01-23 23:04:21,-0.071136,0.310699,-0.324936,-0.855255,-0.760712,14.941940
2019-01-23 23:04:21,-0.071335,-0.420609,-0.271484,-0.855255,-0.760712,14.941940
2019-01-23 23:04:21,-0.071335,-0.420609,-0.271484,-2.674988,0.222748,13.368668
2019-01-23 23:04:21,-0.071335,-0.420609,-0.271484,-3.102112,1.520844,10.278336
2019-01-23 23:04:21,-0.071335,-0.420609,-0.271484,-4.357132,3.599014,8.968262
2019-01-23 23:04:21,-0.071335,-0.420609,-0.271484,-7.818359,7.931229,8.669159
2019-01-23 23:04:21,-0.071335,-0.420609,-0.271484,-7.489349,8.673004,8.725388
2019-01-23 23:04:21,-0.071335,-0.420609,-0.271484,6.786240,-0.891113,13.814926
2019-01-23 23:04:21,-0.071335,-0.420609,-0.271484,9.780853,-6.737976,26.665573
2019-01-23 23:04:21,-0.071335,-0.420609,-0.271484,7.440674,-6.529800,29.965286
2019-01-23 23:04:21,-0.071335,-0.420609,-0.271484,-0.125443,-1.641266,15.431274
2019-01-23 23:04:21,-0.071335,-0.420609,-0.271484,-8.724045,3.536804,-1.275421
2019-01-23 23:04:21,-0.071335,-0.420609,-0.271484,-8.462036,5.343384,-9.178909
2019-01-23 23:04:21,-0.071335,-0.420609,-0.271484,-5.553558,3.551163,-2.763748
2019-01-23 23:04:21,-0.071335,-0.420609,-0.271484,-0.980865,0.380676,6.909241
2019-01-23 23:04:21,-0.071335,-0.420609,-0.271484,1.560318,-1.430710,6.327789
2019-01-23 23:04:21,-0.071335,-0.420609,-0.271484,2.213562,-1.092117,-0.565948
2019-01-23 23:04:21,-0.071335,-0.420609,-0.271484,0.774277,-0.123032,-3.192078
2019-01-23 23:04:21,-0.071335,-0.420609,-0.271484,1.551941,-1.043060,-2.140427
2019-01-23 23:04:21,-0.071335,-0.420609,-0.271484,2.584442,-2.183243,3.207535
2019-01-23 23:04:21,-0.071335,-0.420609,-0.271484,1.060211,-0.912659,8.737350
2019-01-23 23:04:21,0.317245,0.188660,0.023071,1.060211,-0.912659,8.737350
2019-01-23 23:04:21,0.317245,0.188660,0.023071,-2.773102,0.810181,9.043640
2019-01-23 23:04:21,0.317245,0.188660,0.023071,-3.647675,2.353561,6.831467
2019-01-23 23:04:21,0.317245,0.188660,0.023071,-0.138596,1.097321,0.571838
2019-01-23 23:04:21,0.317245,0.188660,0.023071,3.546356,2.595230,-4.201843
2019-01-23 23:04:21,0.317245,0.188660,0.023071,-7.581467,2.924240,27.821304
2019-01-23 23:04:21,0.317245,0.188660,0.023071,-3.027924,0.701309,52.460205
2019-01-23 23:04:21,0.317245,0.188660,0.023071,0.893921,2.958939,15.375046
2019-01-23 23:04:21,0.317245,0.188660,0.023071,-2.927429,6.746780,15.037643
2019-01-23 23:04:21,0.317245,0.188660,0.023071,-3.014771,6.146179,13.540939
2019-01-23 23:04:21,0.317245,0.188660,0.023071,1.547150,3.535599,17.619507
2019-01-23 23:04:21,-0.803085,-0.399658,0.365753,1.547150,3.535599,17.619507
2019-01-23 23:04:21,-0.803085,-0.399658,0.365753,2.632309,2.178879,20.380829
2019-01-23 23:04:21,-0.803085,-0.399658,0.365753,1.336594,1.813965,17.764267
2019-01-23 23:04:21,-0.803085,-0.399658,0.365753,1.519638,1.337799,10.851410
2019-01-23 23:04:21,-0.803085,-0.399658,0.365753,1.754135,1.416763,3.208740
2019-01-23 23:04:21,-0.803085,-0.399658,0.365753,1.981461,1.355743,1.281326
2019-01-23 23:04:21,-0.803085,-0.399658,0.365753,1.981461,0.903503,3.098663
2019-01-23 23:04:21,-0.803085,-0.399658,0.365753,0.981247,0.616364,5.304855
2019-01-23 23:04:21,-0.803085,-0.399658,0.365753,-0.830124,0.477585,5.389801
2019-01-23 23:04:21,-0.803085,-0.399658,0.365753,-1.489349,0.422546,5.420898
2019-01-23 23:04:21,0.861572,0.077240,-0.208878,-1.489349,0.422546,5.420898
2019-01-23 23:04:21,0.861572,0.077240,-0.208878,-0.856445,0.136612,6.124390
2019-01-23 23:04:21,0.861572,0.077240,-0.208878,-0.735596,0.439301,7.045624
2019-01-23 23:04:21,0.861572,0.077240,-0.208878,-0.868408,1.414368,7.228683
2019-01-23 23:04:21,0.861572,0.077240,-0.208878,-1.843475,2.705307,7.412933
2019-01-23 23:04:21,0.861572,0.077240,-0.208878,-1.735809,3.278381,7.676132
2019-01-23 23:04:21,0.861572,0.077240,-0.208878,0.083954,2.841690,9.498260
2019-01-23 23:04:21,0.861572,0.077240,-0.208878,1.011154,2.388245,12.461777
2019-01-23 23:04:21,0.861572,0.077240,-0.208878,1.073380,2.376282,12.520401
2019-01-23 23:04:21,0.861572,0.077240,-0.208878,0.776657,2.043686,10.143143
2019-01-23 23:04:21,0.861572,0.077240,-0.208878,0.756317,1.672791,8.671555
2019-01-23 23:04:21,-0.263443,0.063751,0.176453,0.756317,1.672791,8.671555
2019-01-23 23:04:22,-0.263443,0.063751,0.176453,0.718048,1.388046,8.347321
2019-01-23 23:04:22,-0.263443,0.063751,0.176453,-0.069214,1.651260,7.415314
2019-01-23 23:04:22,-0.263443,0.063751,0.176453,-0.503510,1.593826,7.031265
2019-01-23 23:04:22,-0.263443,0.063751,0.176453,-0.398224,1.183472,8.681122
2019-01-23 23:04:22,-0.263443,0.063751,0.176453,-0.556137,1.027939,11.485504
2019-01-23 23:04:22,-0.263443,0.063751,0.176453,-0.956940,1.398819,12.565872
2019-01-23 23:04:22,-0.263443,0.063751,0.176453,-1.693924,1.731415,11.789398
2019-01-23 23:04:22,-0.263443,0.063751,0.176453,-1.921249,1.474197,12.179428
2019-01-23 23:04:22,-0.263443,0.063751,0.176453,-1.349365,1.154755,12.617310
2019-01-23 23:04:22,-0.336746,0.186096,-0.006989,-1.349365,1.154755,12.617310
2019-01-23 23:04:22,-0.336746,0.186096,-0.006989,-1.044281,1.012375,12.482117
2019-01-23 23:04:22,-0.336746,0.186096,-0.006989,-0.789444,0.542191,11.889893
2019-01-23 23:04:22,-0.336746,0.186096,-0.006989,-0.648270,-0.063202,10.441040
2019-01-23 23:04:22,-0.336746,0.186096,-0.006989,-1.011978,-0.497498,8.647614
2019-01-23 23:04:22,-0.336746,0.186096,-0.006989,-1.789642,-0.818130,8.480118
2019-01-23 23:04:22,-0.336746,0.186096,-0.006989,-1.675980,-0.889923,9.177628
2019-01-23 23:04:22,-0.336746,0.186096,-0.006989,-1.287155,-0.477158,9.141739
2019-01-23 23:04:22,-0.336746,0.186096,-0.006989,-1.459427,-0.000992,8.573441
2019-01-23 23:04:22,-0.336746,0.186096,-0.006989,-1.342178,0.123444,8.742142
2019-01-23 23:04:22,-0.336746,0.186096,-0.006989,-0.308487,0.860428,8.332962
2019-01-23 23:04:22,0.232269,0.052200,0.151886,-0.308487,0.860428,8.332962
2019-01-23 23:04:22,0.232269,0.052200,0.151886,-0.142181,1.593826,9.104645
2019-01-23 23:04:22,0.232269,0.052200,0.151886,-0.036911,1.477783,10.092880
2019-01-23 23:04:22,0.232269,0.052200,0.151886,-0.370697,1.724243,10.278336
2019-01-23 23:04:22,0.232269,0.052200,0.151886,-1.180679,2.564117,9.605942
2019-01-23 23:04:22,0.232269,0.052200,0.151886,-1.251251,2.950562,8.378433
2019-01-23 23:04:22,0.232269,0.052200,0.151886,-0.857635,2.853653,8.281525
2019-01-23 23:04:22,0.232269,0.052200,0.151886,-1.156738,2.488754,8.856995
2019-01-23 23:04:22,0.232269,0.052200,0.151886,-0.741592,1.915665,9.558090
2019-01-23 23:04:22,0.232269,0.052200,0.151886,-0.449661,1.579483,10.103653
2019-01-23 23:04:22,-0.207184,-0.126297,0.151398,-0.449661,1.579483,10.103653
2019-01-23 23:04:22,-0.207184,-0.126297,0.151398,0.007370,1.207397,9.979233
2019-01-23 23:04:22,-0.207184,-0.126297,0.151398,0.697708,0.880768,10.113220
2019-01-23 23:04:22,-0.207184,-0.126297,0.151398,0.521835,1.109283,10.898071
2019-01-23 23:04:22,-0.207184,-0.126297,0.151398,-0.028534,1.885757,10.677933
2019-01-23 23:04:22,-0.207184,-0.126297,0.151398,-0.813370,2.653854,10.216125
2019-01-23 23:04:22,-0.207184,-0.126297,0.151398,-1.258438,2.852463,10.171844
2019-01-23 23:04:22,-0.207184,-0.126297,0.151398,-1.142395,2.663422,10.311829
2019-01-23 23:04:22,-0.207184,-0.126297,0.151398,-0.412567,2.351166,11.241440
2019-01-23 23:04:22,-0.207184,-0.126297,0.151398,0.611557,1.561539,11.136154
2019-01-23 23:04:22,-0.207184,-0.126297,0.151398,1.019547,1.024338,9.835663
2019-01-23 23:04:22,0.186096,-0.093674,-0.008820,1.019547,1.024338,9.835663
2019-01-23 23:04:22,0.186096,-0.093674,-0.008820,0.637878,1.316269,8.176239
2019-01-23 23:04:22,0.186096,-0.093674,-0.008820,0.136581,2.046082,6.100464
2019-01-23 23:04:22,0.186096,-0.093674,-0.008820,-0.368301,2.437302,5.204346
2019-01-23 23:04:22,0.186096,-0.093674,-0.008820,-1.132813,2.164520,6.153107
2019-01-23 23:04:23,0.186096,-0.093674,-0.008820,-0.822952,1.486160,9.217117
2019-01-23 23:04:23,0.186096,-0.093674,-0.008820,-0.005798,1.109283,10.805939
2019-01-23 23:04:23,0.186096,-0.093674,-0.008820,0.349548,0.941788,11.035660
2019-01-23 23:04:23,0.186096,-0.093674,-0.008820,0.428513,1.121246,11.189987
2019-01-23 23:04:23,0.186096,-0.093674,-0.008820,-0.118256,1.977890,10.937546
2019-01-23 23:04:23,-0.145981,-0.093552,-0.056885,-0.118256,1.977890,10.937546
2019-01-23 23:04:23,-0.145981,-0.093552,-0.056885,-0.808578,3.127640,9.686111
2019-01-23 23:04:23,-0.145981,-0.093552,-0.056885,-0.753555,2.926636,9.066360
2019-01-23 23:04:23,-0.145981,-0.093552,-0.056885,0.121033,1.577087,10.074936
2019-01-23 23:04:23,-0.145981,-0.093552,-0.056885,0.767090,0.722839,10.736557
2019-01-23 23:04:23,-0.145981,-0.093552,-0.056885,0.915451,0.759933,9.883514
2019-01-23 23:04:23,-0.145981,-0.093552,-0.056885,0.032501,1.496918,8.396378
2019-01-23 23:04:23,-0.145981,-0.093552,-0.056885,-1.169907,2.574890,7.109039
2019-01-23 23:04:23,-0.145981,-0.093552,-0.056885,-1.177078,2.686157,6.939148
2019-01-23 23:04:23,-0.145981,-0.093552,-0.056885,-0.748764,1.986252,8.470551
2019-01-23 23:04:23,-0.145981,-0.093552,-0.056885,0.184448,0.722839,11.164871
2019-01-23 23:04:23,0.007156,-0.024460,-0.064041,0.184448,0.722839,11.164871
2019-01-23 23:04:23,0.007156,-0.024460,-0.064041,0.871185,0.411774,12.460587
2019-01-23 23:04:23,0.007156,-0.024460,-0.064041,0.414154,1.188248,11.613525
2019-01-23 23:04:23,0.007156,-0.024460,-0.064041,-0.146973,2.148972,9.379822
2019-01-23 23:04:23,0.007156,-0.024460,-0.064041,-0.351547,2.493530,8.385605
2019-01-23 23:04:23,0.007156,-0.024460,-0.064041,-0.302505,2.354752,8.542343
2019-01-23 23:04:23,0.007156,-0.024460,-0.064041,-0.121841,1.763733,9.599960
2019-01-23 23:04:23,0.007156,-0.024460,-0.064041,-0.021347,1.146378,10.670761
2019-01-23 23:04:23,0.007156,-0.024460,-0.064041,0.168884,0.695328,11.201965
2019-01-23 23:04:23,0.007156,-0.024460,-0.064041,0.079163,0.822159,11.015320
2019-01-23 23:04:23,-0.073288,-0.071075,-0.000687,0.079163,0.822159,11.015320
2019-01-23 23:04:23,-0.073288,-0.071075,-0.000687,-0.388641,1.516068,10.211334
2019-01-23 23:04:23,-0.073288,-0.071075,-0.000687,-0.609985,2.103500,9.921799
2019-01-23 23:04:23,-0.073288,-0.071075,-0.000687,-0.602798,2.140594,9.836853
2019-01-23 23:04:23,-0.073288,-0.071075,-0.000687,-0.096725,1.672791,10.162277
2019-01-23 23:04:23,-0.073288,-0.071075,-0.000687,0.702484,0.911880,11.085907
2019-01-23 23:04:23,-0.073288,-0.071075,-0.000687,0.645065,0.806595,10.648026
2019-01-23 23:04:23,-0.073288,-0.071075,-0.000687,0.122223,1.281570,9.877533
2019-01-23 23:04:23,-0.073288,-0.071075,-0.000687,-0.175690,1.835510,9.037659
2019-01-23 23:04:23,-0.073288,-0.071075,-0.000687,-0.190048,2.058044,7.972839
2019-01-23 23:04:23,-0.073288,-0.071075,-0.000687,-0.266617,1.796021,7.968063
2019-01-23 23:04:23,0.012848,0.071625,-0.115646,-0.266617,1.796021,7.968063
2019-01-23 23:04:23,0.012848,0.071625,-0.115646,0.198792,1.157135,9.558090
2019-01-23 23:04:23,0.012848,0.071625,-0.115646,0.849640,0.695328,10.876526
2019-01-23 23:04:23,0.012848,0.071625,-0.115646,0.806580,0.873596,10.854996
2019-01-23 23:04:23,0.012848,0.071625,-0.115646,0.308868,1.200211,9.948120
2019-01-23 23:04:23,0.012848,0.071625,-0.115646,-0.157730,1.452667,9.140549
