Time,Gx,Gy,Gz,Ax,Ay,Az
2019-01-28 22:45:23:4523,-0.044876,-0.040268,0.102127,0.000000,0.000000,0.000000
2019-01-28 22:45:23:4523,-0.044876,-0.040268,0.102127,-0.633743,0.656860,9.632858
2019-01-28 22:45:23:4523,-0.044876,-0.040268,0.102127,-0.378906,0.738205,9.637634
2019-01-28 22:45:23:4523,-0.044876,-0.040268,0.102127,-0.211395,0.722656,9.656784
2019-01-28 22:45:23:4523,-0.044876,-0.040268,0.102127,-0.299927,0.649673,9.691467
2019-01-28 22:45:23:4523,-0.044876,-0.040268,0.102127,-0.055862,0.506119,9.940323
2019-01-28 22:45:23:4523,-0.044876,-0.040268,0.102127,0.191803,0.388870,10.258575
2019-01-28 22:45:23:4523,-0.044876,-0.040268,0.102127,0.166672,0.373306,10.286087
2019-01-28 22:45:23:4523,-0.044876,-0.040268,0.102127,-0.024765,0.575500,9.976227
2019-01-28 22:45:23:4523,-0.044876,-0.040268,0.102127,-0.121674,0.757355,9.490479
2019-01-28 22:45:23:4523,-0.044876,-0.040268,0.102127,-0.037918,0.862640,9.199753
2019-01-28 22:45:23:4523,-0.044876,-0.040268,0.102127,-0.006821,0.875793,9.124374
2019-01-28 22:45:23:4523,-0.044876,-0.040268,0.102127,0.001572,0.805206,9.460571
2019-01-28 22:45:23:4523,-0.044876,-0.040268,0.102127,0.029083,0.735825,9.679520
2019-01-28 22:45:23:4523,-0.044876,-0.040268,0.102127,-0.063049,0.679596,9.671143
2019-01-28 22:45:23:4523,-0.044876,-0.040268,0.102127,-0.082184,0.675995,10.140137
2019-01-28 22:45:23:4523,-0.044876,-0.040268,0.102127,-0.267639,0.747772,10.930954
2019-01-28 22:45:23:4523,-0.044876,-0.040268,0.102127,-1.736832,1.564941,9.771637
2019-01-28 22:45:23:4523,-0.044876,-0.040268,0.102127,-0.944809,1.722855,9.711823
2019-01-28 22:45:23:4523,-0.044876,-0.040268,0.102127,0.270767,1.097137,9.906830
2019-01-28 22:45:23:4523,-0.022644,0.039078,0.243469,0.270767,1.097137,9.906830
2019-01-28 22:45:23:4523,-0.022644,0.039078,0.243469,1.531784,0.478592,10.026474
2019-01-28 22:45:23:4523,-0.022644,0.039078,0.243469,1.190796,0.278793,9.832657
2019-01-28 22:45:24:4524,-0.022644,0.039078,0.243469,0.517227,0.600632,9.485687
2019-01-28 22:45:24:4524,-0.022644,0.039078,0.243469,0.362885,0.939209,9.787186
2019-01-28 22:45:24:4524,-0.022644,0.039078,0.243469,0.061386,1.247879,10.372238
2019-01-28 22:45:24:4524,-0.022644,0.039078,0.243469,-0.179092,1.481186,10.646210
2019-01-28 22:45:24:4524,-0.022644,0.039078,0.243469,-0.157562,1.299332,11.098450
2019-01-28 22:45:24:4524,-0.022644,0.039078,0.243469,0.013535,1.026550,11.188187
2019-01-28 22:45:24:4524,-0.022644,0.039078,0.243469,0.299469,0.722656,10.709625
2019-01-28 22:45:24:4524,-0.022644,0.039078,0.243469,0.493301,0.715485,9.934341
2019-01-28 22:45:24:4524,0.249237,-0.006119,0.095459,0.493301,0.715485,9.934341
2019-01-28 22:45:24:4524,0.249237,-0.006119,0.095459,0.282715,0.849472,9.155487
2019-01-28 22:45:24:4524,0.249237,-0.006119,0.095459,-0.053482,1.176102,8.478317
2019-01-28 22:45:24:4524,0.249237,-0.006119,0.095459,-0.139618,1.342392,8.150497
2019-01-28 22:45:24:4524,0.249237,-0.006119,0.095459,-0.097748,1.282578,8.132553
2019-01-28 22:45:24:4524,0.249237,-0.006119,0.095459,0.118820,1.077988,8.497452
2019-01-28 22:45:24:4524,0.249237,-0.006119,0.095459,0.155899,0.938019,9.297852
2019-01-28 22:45:24:4524,0.249237,-0.006119,0.095459,-0.113297,1.073212,10.057587
2019-01-28 22:45:24:4524,0.249237,-0.006119,0.095459,-0.167130,1.216782,10.164063
2019-01-28 22:45:24:4524,0.249237,-0.006119,0.095459,-0.192261,1.318481,9.960663
2019-01-28 22:45:24:4524,0.168671,0.051895,-0.028702,-0.192261,1.318481,9.960663
2019-01-28 22:45:24:4524,0.168671,0.051895,-0.028702,-0.114487,1.393845,9.601746
2019-01-28 22:45:24:4524,0.168671,0.051895,-0.028702,0.027893,1.418976,9.135147
2019-01-28 22:45:24:4524,0.168671,0.051895,-0.028702,0.147537,1.506302,8.788193
2019-01-28 22:45:24:4524,0.168671,0.051895,-0.028702,0.179840,1.501526,8.475922
2019-01-28 22:45:24:4524,0.168671,0.051895,-0.028702,0.334167,1.410599,8.571640
2019-01-28 22:45:24:4524,0.168671,0.051895,-0.028702,0.379639,1.325653,9.242813
2019-01-28 22:45:24:4524,0.168671,0.051895,-0.028702,0.055405,1.326843,9.851791
2019-01-28 22:45:24:4524,0.168671,0.051895,-0.028702,-0.090561,1.359146,10.320786
2019-01-28 22:45:24:4524,0.168671,0.051895,-0.028702,0.076935,1.311295,10.709625
2019-01-28 22:45:24:4524,0.168671,0.051895,-0.028702,0.020706,1.264633,10.835251
2019-01-28 22:45:24:4524,-0.051788,0.003036,0.035248,0.020706,1.264633,10.835251
2019-01-28 22:45:24:4524,-0.051788,0.003036,0.035248,0.041046,1.251480,10.475128
2019-01-28 22:45:24:4524,-0.051788,0.003036,0.035248,0.043442,1.202423,9.819489
2019-01-28 22:45:24:4524,-0.051788,0.003036,0.035248,0.079330,1.182083,9.459381
2019-01-28 22:45:24:4524,-0.051788,0.003036,0.035248,-0.136032,1.214386,9.174622
2019-01-28 22:45:24:4524,-0.051788,0.003036,0.035248,-0.201828,1.286163,9.173431
2019-01-28 22:45:24:4524,-0.051788,0.003036,0.035248,-0.025955,1.182083,9.354095
2019-01-28 22:45:24:4524,-0.051788,0.003036,0.035248,-0.121674,1.174896,9.516800
2019-01-28 22:45:24:4524,-0.051788,0.003036,0.035248,-0.170731,1.158157,9.692673
2019-01-28 22:45:24:4524,-0.051788,0.003036,0.035248,-0.234131,1.176102,9.890076
2019-01-28 22:45:24:4524,0.006073,0.051529,-0.035431,-0.234131,1.176102,9.890076
2019-01-28 22:45:26:4526,0.006073,0.051529,-0.035431,-0.188675,1.174911,9.847015
2019-01-28 22:45:26:4526,0.006073,0.051529,-0.035431,-0.126450,1.227539,9.690277
2019-01-28 22:45:26:4526,0.006073,0.051529,-0.035431,-0.165939,1.167725,9.464157
2019-01-28 22:45:26:4526,0.006073,0.051529,-0.035431,-0.323868,1.113892,9.378021
2019-01-28 22:45:26:4526,0.006073,0.051529,-0.035431,-0.281982,1.046890,9.415100
2019-01-28 22:45:26:4526,0.006073,0.051529,-0.035431,-0.218582,0.997833,9.512009
2019-01-28 22:45:26:4526,0.006073,0.051529,-0.035431,-0.323868,0.949966,9.605331
2019-01-28 22:45:26:4526,0.006073,0.051529,-0.035431,-0.339417,0.929642,9.741730
2019-01-28 22:45:26:4526,0.006073,0.051529,-0.035431,-0.372925,0.918869,9.978622
2019-01-28 22:45:26:4526,0.006073,0.051529,-0.035431,-0.304718,0.878189,9.951096
2019-01-28 22:45:26:4526,-0.083969,-0.020294,-0.072021,-0.304718,0.878189,9.951096
2019-01-28 22:45:26:4526,-0.083969,-0.020294,-0.072021,-0.242508,0.874603,9.876923
2019-01-28 22:45:26:4526,-0.083969,-0.020294,-0.072021,-0.203018,0.918869,9.866150
2019-01-28 22:45:26:4526,-0.083969,-0.020294,-0.072021,-0.127655,0.977493,9.849411
2019-01-28 22:45:26:4526,-0.083969,-0.020294,-0.072021,-0.025955,1.006210,9.722580
2019-01-28 22:45:26:4526,-0.083969,-0.020294,-0.072021,0.048233,0.997833,9.619690
2019-01-28 22:45:26:4526,-0.083969,-0.020294,-0.072021,0.056610,0.957153,9.425873
2019-01-28 22:45:26:4526,-0.083969,-0.020294,-0.072021,0.176239,0.893753,9.251190
2019-01-28 22:45:26:4526,-0.083969,-0.020294,-0.072021,0.323395,0.740601,9.185394
2019-01-28 22:45:26:4526,-0.083969,-0.020294,-0.072021,0.361679,0.668823,9.324173
2019-01-28 22:45:26:4526,-0.083969,-0.020294,-0.072021,0.262390,0.689163,9.555084
2019-01-28 22:45:26:4526,-0.098511,-0.112961,-0.077087,0.262390,0.689163,9.555084
2019-01-28 22:45:26:4526,-0.098511,-0.112961,-0.077087,0.048233,0.732224,9.997757
2019-01-28 22:45:26:4526,-0.098511,-0.112961,-0.077087,-0.059464,0.820770,10.256180
2019-01-28 22:45:26:4526,-0.098511,-0.112961,-0.077087,-0.058258,0.845886,10.257370
2019-01-28 22:45:26:4526,-0.098511,-0.112961,-0.077087,-0.106110,0.885376,10.052795
2019-01-28 22:45:26:4526,-0.098511,-0.112961,-0.077087,-0.180298,0.984680,10.053986
2019-01-28 22:45:26:4526,-0.098511,-0.112961,-0.077087,-0.248489,1.105515,9.991776
2019-01-28 22:45:26:4526,-0.098511,-0.112961,-0.077087,-0.220963,1.168915,9.925980
2019-01-28 22:45:26:4526,-0.098511,-0.112961,-0.077087,-0.171921,1.173706,9.934341
2019-01-28 22:45:26:4526,-0.098511,-0.112961,-0.077087,-0.155167,1.231140,9.903244
2019-01-28 22:45:26:4526,0.026886,0.001587,-0.013504,-0.155167,1.231140,9.903244
2019-01-28 22:45:26:4526,0.026886,0.001587,-0.013504,0.025497,1.220367,9.763260
2019-01-28 22:45:26:4526,0.026886,0.001587,-0.013504,0.158295,1.171310,9.873322
2019-01-28 22:45:26:4526,0.026886,0.001587,-0.013504,0.147522,1.136612,9.686691
2019-01-28 22:45:26:4526,0.026886,0.001587,-0.013504,0.212143,1.113892,9.825470
2019-01-28 22:45:26:4526,0.026886,0.001587,-0.013504,0.105652,1.076797,9.947510
2019-01-28 22:45:26:4526,0.026886,0.001587,-0.013504,0.097290,1.166534,9.887695
2019-01-28 22:45:26:4526,0.026886,0.001587,-0.013504,0.080536,1.203613,9.789581
2019-01-28 22:45:26:4526,0.026886,0.001587,-0.013504,0.068573,1.269409,9.705826
2019-01-28 22:45:26:4526,0.026886,0.001587,-0.013504,0.079330,1.247879,9.696259
2019-01-28 22:45:26:4526,0.026886,0.001587,-0.013504,0.110443,1.249084,9.665161
2019-01-28 22:45:26:4526,0.101776,-0.007706,-0.013321,0.110443,1.249084,9.665161
2019-01-28 22:45:26:4526,0.101776,-0.007706,-0.013321,0.192993,1.255066,9.623276
2019-01-28 22:45:26:4526,0.101776,-0.007706,-0.013321,0.146332,1.261047,9.616104
2019-01-28 22:45:26:4526,0.101776,-0.007706,-0.013321,0.001572,1.252670,9.563461
2019-01-28 22:45:26:4526,0.101776,-0.007706,-0.013321,-0.097748,1.183273,9.394760
2019-01-28 22:45:26:4526,0.101776,-0.007706,-0.013321,-0.030746,1.119858,9.363663
2019-01-28 22:45:26:4526,0.101776,-0.007706,-0.013321,-0.113297,1.166519,9.288284
2019-01-28 22:45:26:4526,0.101776,-0.007706,-0.013321,-0.153976,1.186874,9.348114
2019-01-28 22:45:26:4526,0.101776,-0.007706,-0.013321,-0.159958,1.171310,9.456985
2019-01-28 22:45:26:4526,0.101776,-0.007706,-0.013321,-0.094147,1.128250,9.512009
2019-01-28 22:45:26:4526,-0.031189,0.027481,-0.023880,-0.094147,1.128250,9.512009
2019-01-28 22:45:26:4526,-0.031189,0.027481,-0.023880,-0.015198,1.112686,9.714203
2019-01-28 22:45:26:4526,-0.031189,0.027481,-0.023880,-0.125259,1.092346,9.897263
2019-01-28 22:45:26:4526,-0.031189,0.027481,-0.023880,-0.159958,1.079193,9.927170
2019-01-28 22:45:26:4526,-0.031189,0.027481,-0.023880,-0.049881,1.054062,9.892471
2019-01-28 22:45:26:4526,-0.031189,0.027481,-0.023880,-0.091766,1.036118,9.867340
2019-01-28 22:45:26:4526,-0.031189,0.027481,-0.023880,-0.127655,1.058853,9.698654
2019-01-28 22:45:26:4526,-0.031189,0.027481,-0.023880,-0.025955,0.978699,9.562256
2019-01-28 22:45:26:4526,-0.031189,0.027481,-0.023880,-0.036728,0.946381,9.569443
2019-01-28 22:45:26:4526,-0.031189,0.027481,-0.023880,-0.134827,1.049271,9.539536
2019-01-28 22:45:26:4526,-0.031189,0.027481,-0.023880,0.023102,1.026550,9.490479
2019-01-28 22:45:26:4526,-0.037796,0.000107,-0.024612,0.023102,1.026550,9.490479
2019-01-28 22:45:26:4526,-0.037796,0.000107,-0.024612,0.096085,1.038513,9.576614
2019-01-28 22:45:26:4526,-0.037796,0.000107,-0.024612,0.117615,1.030136,9.681900
2019-01-28 22:45:26:4526,-0.037796,0.000107,-0.024612,0.088913,0.997833,9.740524
2019-01-28 22:45:26:4526,-0.037796,0.000107,-0.024612,0.036270,0.984665,9.875717
2019-01-28 22:45:26:4526,-0.037796,0.000107,-0.024612,-0.041504,0.994247,9.952301
2019-01-28 22:45:26:4526,-0.037796,0.000107,-0.024612,-0.073822,1.018173,9.919998
2019-01-28 22:45:26:4526,-0.037796,0.000107,-0.024612,-0.045090,1.043304,9.747711
2019-01-28 22:45:26:4526,-0.037796,0.000107,-0.024612,0.090103,1.013382,9.679520
2019-01-28 22:45:26:4526,-0.037796,0.000107,-0.024612,0.061386,1.030136,9.651993
2019-01-28 22:45:26:4526,-0.003586,-0.038681,-0.013809,0.061386,1.030136,9.651993
2019-01-28 22:45:26:4526,-0.003586,-0.038681,-0.013809,-0.004425,1.066025,9.709427
2019-01-28 22:45:26:4526,-0.003586,-0.038681,-0.013809,-0.053467,1.062439,9.875732
2019-01-28 22:45:26:4526,-0.003586,-0.038681,-0.013809,-0.005615,1.048080,9.987000
2019-01-28 22:45:26:4526,-0.003586,-0.038681,-0.013809,0.073349,1.018173,9.939133
2019-01-28 22:45:26:4526,-0.003586,-0.038681,-0.013809,0.177444,1.015778,9.869736
2019-01-28 22:45:26:4526,-0.003586,-0.038681,-0.013809,0.133179,1.011002,9.736938
2019-01-28 22:45:26:4526,-0.003586,-0.038681,-0.013809,0.184616,0.989456,9.484497
2019-01-28 22:45:26:4526,-0.003586,-0.038681,-0.013809,0.207352,0.954758,9.364853
2019-01-28 22:45:26:4526,-0.003586,-0.038681,-0.013809,0.259995,0.953568,9.314606
2019-01-28 22:45:26:4526,0.023224,-0.012527,-0.089371,0.259995,0.953568,9.314606
2019-01-28 22:45:26:4526,0.023224,-0.012527,-0.089371,0.257599,1.037323,9.240433
2019-01-28 22:45:26:4526,0.023224,-0.012527,-0.089371,0.287506,1.058853,9.220093
2019-01-28 22:45:26:4526,0.023224,-0.012527,-0.089371,0.446640,0.954758,10.007339
2019-01-28 22:45:26:4526,0.023224,-0.012527,-0.089371,0.021912,1.070816,9.847015
2019-01-28 22:45:26:4526,0.023224,-0.012527,-0.089371,-0.424362,1.241898,9.807526
2019-01-28 22:45:26:4526,0.023224,-0.012527,-0.089371,-0.611008,1.350769,9.785995
2019-01-28 22:45:26:4526,0.023224,-0.012527,-0.089371,-0.557159,1.375900,9.705826
2019-01-28 22:45:26:4526,0.023224,-0.012527,-0.089371,-0.351379,1.312485,9.558670
2019-01-28 22:45:26:4526,0.023224,-0.012527,-0.089371,-0.084579,1.139008,9.465363
2019-01-28 22:45:26:4526,0.023224,-0.012527,-0.089371,0.154709,0.984665,9.507233
2019-01-28 22:45:26:4526,-0.129715,-0.016190,-0.010376,0.154709,0.984665,9.507233
2019-01-28 22:45:26:4526,-0.129715,-0.016190,-0.010376,0.219315,0.929642,9.649597
2019-01-28 22:45:26:4526,-0.129715,-0.016190,-0.010376,0.151123,0.878189,9.595764
2019-01-28 22:45:26:4526,-0.129715,-0.016190,-0.010376,0.210938,0.872208,9.465347
2019-01-28 22:45:26:4526,-0.129715,-0.016190,-0.010376,0.391602,0.899719,9.477325
2019-01-28 22:45:26:4526,-0.129715,-0.016190,-0.010376,0.305466,0.850677,9.552689
2019-01-28 22:45:26:4526,-0.129715,-0.016190,-0.010376,0.356903,0.768127,9.855377
2019-01-28 22:45:26:4526,-0.129715,-0.016190,-0.010376,0.440643,0.757355,10.030060
2019-01-28 22:45:26:4526,-0.129715,-0.016190,-0.010376,0.319824,0.721466,10.089874
2019-01-28 22:45:26:4526,-0.129715,-0.016190,-0.010376,0.054214,0.689163,10.093475
2019-01-28 22:45:26:4526,-0.064545,0.048233,-0.042023,0.054214,0.689163,10.093475
2019-01-28 22:45:26:4526,-0.064545,0.048233,-0.042023,-0.107315,0.717865,10.089874
2019-01-28 22:45:27:4527,-0.064545,0.048233,-0.042023,-0.109711,0.774109,9.947510
2019-01-28 22:45:27:4527,-0.064545,0.048233,-0.042023,-0.125259,0.772903,9.687881
2019-01-28 22:45:27:4527,-0.064545,0.048233,-0.042023,-0.079788,0.713089,9.678314
2019-01-28 22:45:27:4527,-0.064545,0.048233,-0.042023,-0.139618,0.696335,9.490479
2019-01-28 22:45:27:4527,-0.064545,0.048233,-0.042023,-0.186279,0.667618,9.484497
2019-01-28 22:45:27:4527,-0.064545,0.048233,-0.042023,-0.142014,0.728638,9.655579
2019-01-28 22:45:27:4527,-0.064545,0.048233,-0.042023,-0.045105,0.752563,9.703445
2019-01-28 22:45:27:4527,-0.064545,0.048233,-0.042023,0.035065,0.728638,9.933151
2019-01-28 22:45:27:4527,-0.064545,0.048233,-0.042023,0.149918,0.658051,10.070740
2019-01-28 22:45:27:4527,-0.001328,0.046768,-0.064682,0.149918,0.658051,10.070740
2019-01-28 22:45:27:4527,-0.001328,0.046768,-0.064682,0.271957,0.496536,10.144913
2019-01-28 22:45:27:4527,-0.001328,0.046768,-0.064682,0.257599,0.417572,10.131760
2019-01-28 22:45:27:4527,-0.001328,0.046768,-0.064682,0.147537,0.394852,9.955887
2019-01-28 22:45:27:4527,-0.001328,0.046768,-0.064682,0.008743,0.451080,9.672333
2019-01-28 22:45:27:4527,-0.001328,0.046768,-0.064682,-0.157562,0.527649,9.654388
2019-01-28 22:45:27:4527,-0.001328,0.046768,-0.064682,-0.228149,0.600632,9.723770
2019-01-28 22:45:27:4527,-0.001328,0.046768,-0.064682,-0.490158,0.612595,10.038437
2019-01-28 22:45:27:4527,-0.001328,0.046768,-0.064682,-0.585876,0.689163,10.053986
2019-01-28 22:45:27:4527,-0.001328,0.046768,-0.064682,-0.465042,0.772903,9.692673
2019-01-28 22:45:27:4527,0.003738,-0.030182,0.020889,-0.465042,0.772903,9.692673
2019-01-28 22:45:27:4527,0.003738,-0.030182,0.020889,-0.423172,0.839905,9.332550
2019-01-28 22:45:27:4527,0.003738,-0.030182,0.020889,-0.455475,0.821960,9.253586
2019-01-28 22:45:27:4527,0.003738,-0.030182,0.020889,-0.354965,0.655655,9.333740
2019-01-28 22:45:27:4527,0.003738,-0.030182,0.020889,-0.370529,0.489365,9.569443
2019-01-28 22:45:27:4527,0.003738,-0.030182,0.020889,-0.292755,0.397232,9.668747
2019-01-28 22:45:27:4527,0.003738,-0.030182,0.020889,-0.272415,0.375702,9.669937
2019-01-28 22:45:27:4527,0.003738,-0.030182,0.020889,-0.259262,0.358948,9.750107
2019-01-28 22:45:27:4527,0.003738,-0.030182,0.020889,-0.152771,0.445084,9.941528
2019-01-28 22:45:27:4527,0.003738,-0.030182,0.020889,-0.131241,0.598236,9.931961
2019-01-28 22:45:27:4527,0.003738,-0.030182,0.020889,-0.176697,0.717880,9.826675
2019-01-28 22:45:27:4527,0.051025,-0.193527,0.100723,-0.176697,0.717880,9.826675
2019-01-28 22:45:27:4527,0.051025,-0.193527,0.100723,-0.260452,0.770508,9.790771
2019-01-28 22:45:27:4527,0.051025,-0.193527,0.100723,-0.255676,0.808792,9.955887
2019-01-28 22:45:27:4527,0.051025,-0.193527,0.100723,-0.304718,0.737015,10.106628
2019-01-28 22:45:27:4527,0.051025,-0.193527,0.100723,-0.076202,0.670013,10.126968
2019-01-28 22:45:27:4527,0.051025,-0.193527,0.100723,0.100876,0.536026,10.132950
2019-01-28 22:45:27:4527,0.051025,-0.193527,0.100723,0.389206,0.454666,9.851791
2019-01-28 22:45:27:4527,0.051025,-0.193527,0.100723,0.690704,0.484573,9.576614
2019-01-28 22:45:27:4527,0.051025,-0.193527,0.100723,0.725403,0.601822,9.278717
2019-01-28 22:45:27:4527,0.051025,-0.193527,0.100723,0.594986,0.783676,9.194962
2019-01-28 22:45:27:4527,0.051025,-0.193527,0.100723,0.207352,0.886566,9.224869
2019-01-28 22:45:27:4527,0.051025,-0.193527,0.100723,0.136765,0.949966,9.459381
2019-01-28 22:45:27:4527,0.051025,-0.193527,0.100723,0.237259,0.841110,9.829071
2019-01-28 22:45:27:4527,0.051025,-0.193527,0.100723,0.405960,0.649673,10.093475
2019-01-28 22:45:27:4527,0.051025,-0.193527,0.100723,0.606949,0.466629,10.331558
2019-01-28 22:45:27:4527,0.051025,-0.193527,0.100723,0.767273,0.502518,10.158081
2019-01-28 22:45:27:4527,0.051025,-0.193527,0.100723,0.766068,0.672409,9.502441
2019-01-28 22:45:27:4527,0.051025,-0.193527,0.100723,0.677536,0.817169,8.956879
2019-01-28 22:45:27:4527,0.051025,-0.193527,0.100723,0.560287,0.796829,9.059769
2019-01-28 22:45:27:4527,-0.036453,-0.093719,0.052399,0.560287,0.796829,9.059769
2019-01-28 22:45:27:4527,-0.036453,-0.093719,0.052399,0.683533,0.742996,9.452194
2019-01-28 22:45:27:4527,-0.036453,-0.093719,0.052399,0.903656,0.711884,9.527573
2019-01-28 22:45:27:4527,-0.036453,-0.093719,0.052399,0.882126,0.647293,9.614914
2019-01-28 22:45:27:4527,-0.036453,-0.093719,0.052399,0.847427,0.597031,9.820694
2019-01-28 22:45:27:4527,-0.036453,-0.093719,0.052399,0.683517,0.574310,10.253799
2019-01-28 22:45:27:4527,-0.036453,-0.093719,0.052399,0.665573,0.647293,10.472733
2019-01-28 22:45:27:4527,-0.036453,-0.093719,0.052399,0.727798,0.687958,10.260971
2019-01-28 22:45:27:4527,-0.036453,-0.093719,0.052399,0.720612,0.733429,9.983398
2019-01-28 22:45:27:4527,-0.036453,-0.093719,0.052399,0.586609,0.775299,9.935547
2019-01-28 22:45:27:4527,-0.036453,-0.093719,0.052399,0.728989,0.725052,10.082703
2019-01-28 22:45:27:4527,-0.039810,-0.042160,-0.008179,0.728989,0.725052,10.082703
2019-01-28 22:45:27:4527,-0.039810,-0.042160,-0.008179,0.675156,0.656860,10.038437
2019-01-28 22:45:27:4527,-0.039810,-0.042160,-0.008179,0.714630,0.689148,9.777618
2019-01-28 22:45:27:4527,-0.039810,-0.042160,-0.008179,0.574646,0.704712,9.496460
2019-01-28 22:45:27:4527,-0.039810,-0.042160,-0.008179,0.600967,0.701126,9.577820
2019-01-28 22:45:27:4527,-0.039810,-0.042160,-0.008179,0.596191,0.739410,9.467743
2019-01-28 22:45:27:4527,-0.039810,-0.042160,-0.008179,0.575836,0.808792,9.293076
2019-01-28 22:45:27:4527,-0.039810,-0.042160,-0.008179,0.646439,0.804016,9.348099
2019-01-28 22:45:27:4527,-0.039810,-0.042160,-0.008179,0.723007,0.745392,9.522781
2019-01-28 22:45:27:4527,-0.039810,-0.042160,-0.008179,0.640457,0.746582,9.562256
2019-01-28 22:45:27:4527,0.056030,0.041031,-0.038788,0.640457,0.746582,9.562256
2019-01-28 22:45:27:4527,0.056030,0.041031,-0.038788,0.574646,0.754959,9.667542
2019-01-28 22:45:27:4527,0.056030,0.041031,-0.038788,0.346146,0.796829,9.787186
2019-01-28 22:45:27:4527,0.056030,0.041031,-0.038788,0.221710,0.900925,9.807526
2019-01-28 22:45:27:4527,0.056030,0.041031,-0.038788,0.190598,1.007401,9.617294
2019-01-28 22:45:27:4527,0.056030,0.041031,-0.038788,0.157104,0.952362,9.509628
2019-01-28 22:45:27:4527,0.056030,0.041031,-0.038788,0.178635,0.841110,9.722580
2019-01-28 22:45:27:4527,0.056030,0.041031,-0.038788,0.277939,0.792053,9.797958
2019-01-28 22:45:27:4527,0.056030,0.041031,-0.038788,0.346130,0.707108,9.746506
2019-01-28 22:45:27:4527,0.056030,0.041031,-0.038788,0.524399,0.686768,9.771637
2019-01-28 22:45:27:4527,0.056030,0.041031,-0.038788,0.677536,0.675995,9.672333
2019-01-28 22:45:27:4527,-0.009995,0.010803,0.047882,0.677536,0.675995,9.672333
2019-01-28 22:45:27:4527,-0.009995,0.010803,0.047882,0.773254,0.656860,9.606537
2019-01-28 22:45:27:4527,-0.009995,0.010803,0.047882,0.743347,0.670013,9.714203
2019-01-28 22:45:27:4527,-0.009995,0.010803,0.047882,0.618912,0.684372,9.765656
2019-01-28 22:45:27:4527,-0.009995,0.010803,0.047882,0.538757,0.752579,9.823090
2019-01-28 22:45:27:4527,-0.009995,0.010803,0.047882,0.342545,0.794449,9.756088
2019-01-28 22:45:27:4527,-0.009995,0.010803,0.047882,0.166672,0.878189,9.655579
2019-01-28 22:45:27:4527,-0.009995,0.010803,0.047882,0.035065,0.815979,9.529968
2019-01-28 22:45:27:4527,-0.009995,0.010803,0.047882,0.261185,0.707108,9.618500
2019-01-28 22:45:27:4527,-0.009995,0.010803,0.047882,0.464584,0.603027,9.766846
2019-01-28 22:45:27:4527,-0.009995,0.010803,0.047882,0.638062,0.504913,9.789581
2019-01-28 22:45:27:4527,-0.009995,0.010803,0.047882,0.687119,0.467819,9.852997
2019-01-28 22:45:27:4527,-0.047684,-0.069458,0.094254,0.687119,0.467819,9.852997
2019-01-28 22:45:27:4527,-0.047684,-0.069458,0.094254,0.739761,0.447479,9.951096
2019-01-28 22:45:27:4527,-0.047684,-0.069458,0.094254,0.669159,0.455856,9.949905
2019-01-28 22:45:27:4527,-0.047684,-0.069458,0.094254,0.671555,0.502518,9.803940
2019-01-28 22:45:27:4527,-0.047684,-0.069458,0.094254,0.415527,0.574310,9.735748
2019-01-28 22:45:27:4527,-0.047684,-0.069458,0.094254,0.030289,0.717880,9.632858
2019-01-28 22:45:27:4527,-0.047684,-0.069458,0.094254,0.104462,0.768127,9.397156
2019-01-28 22:45:27:4527,-0.047684,-0.069458,0.094254,0.232468,0.757355,9.303833
2019-01-28 22:45:27:4527,-0.047684,-0.069458,0.094254,0.323395,0.678391,9.228470
2019-01-28 22:45:28:4528,-0.047684,-0.069458,0.094254,0.651230,0.564728,9.332550
2019-01-28 22:45:28:4528,-0.047684,-0.069458,0.094254,0.766083,0.482178,9.587387
2019-01-28 22:45:28:4528,-0.040359,-0.034637,0.005981,0.766083,0.482178,9.587387
2019-01-28 22:45:28:4528,-0.040359,-0.034637,0.005981,0.740952,0.445099,9.948700
2019-01-28 22:45:28:4528,-0.040359,-0.034637,0.005981,0.761292,0.479782,10.229858
2019-01-28 22:45:28:4528,-0.040359,-0.034637,0.005981,0.592590,0.565933,10.299255
2019-01-28 22:45:28:4528,-0.040359,-0.034637,0.005981,0.544739,0.619766,10.360275
2019-01-28 22:45:28:4528,-0.040359,-0.034637,0.005981,0.663177,0.660446,10.134155
2019-01-28 22:45:28:4528,-0.040359,-0.034637,0.005981,0.748123,0.681976,10.013306
2019-01-28 22:45:28:4528,-0.040359,-0.034637,0.005981,0.719406,0.752563,9.824280
2019-01-28 22:45:28:4528,-0.040359,-0.034637,0.005981,0.707443,0.777695,9.595764
2019-01-28 22:45:28:4528,-0.040359,-0.034637,0.005981,0.658401,0.789658,9.345718
2019-01-28 22:45:28:4528,-0.040359,-0.034637,0.005981,0.590195,0.742996,9.516800
2019-01-28 22:45:28:4528,0.013580,0.022156,-0.051743,0.590195,0.742996,9.516800
2019-01-28 22:45:28:4528,0.013580,0.022156,-0.051743,0.708649,0.711899,9.650803
2019-01-28 22:45:28:4528,0.013580,0.022156,-0.051743,0.724197,0.667633,9.728561
2019-01-28 22:45:28:4528,0.013580,0.022156,-0.051743,0.679932,0.709503,9.931961
2019-01-28 22:45:28:4528,0.013580,0.022156,-0.051743,0.626099,0.789658,9.982208
2019-01-28 22:45:28:4528,0.013580,0.022156,-0.051743,0.510040,0.827942,10.080307
2019-01-28 22:45:28:4528,0.013580,0.022156,-0.051743,0.422699,0.918869,10.097061
2019-01-28 22:45:28:4528,0.013580,0.022156,-0.051743,0.328186,1.043304,9.869751
2019-01-28 22:45:28:4528,0.013580,0.022156,-0.051743,0.232483,1.135422,9.553894
2019-01-28 22:45:28:4528,0.013580,0.022156,-0.051743,0.299469,1.135422,9.367249
2019-01-28 22:45:28:4528,0.013580,0.022156,-0.051743,0.348526,1.148590,9.373230
2019-01-28 22:45:28:4528,0.092499,0.019714,-0.060287,0.348526,1.148590,9.373230
2019-01-28 22:45:28:4528,0.092499,0.019714,-0.060287,0.372452,1.177292,9.338531
2019-01-28 22:45:28:4528,0.092499,0.019714,-0.060287,0.440659,1.148575,9.275131
2019-01-28 22:45:28:4528,0.092499,0.019714,-0.060287,0.575851,1.079193,9.364853
2019-01-28 22:45:28:4528,0.092499,0.019714,-0.060287,0.810349,1.012192,9.590973
2019-01-28 22:45:28:4528,0.092499,0.019714,-0.060287,0.995789,0.969116,9.638840
2019-01-28 22:45:28:4528,0.092499,0.019714,-0.060287,0.982620,1.056458,9.692673
2019-01-28 22:45:28:4528,0.092499,0.019714,-0.060287,0.743347,1.094742,9.604141
2019-01-28 22:45:28:4528,0.092499,0.019714,-0.060287,0.787613,1.250275,9.233246
2019-01-28 22:45:28:4528,0.092499,0.019714,-0.060287,1.040054,1.258652,8.904236
2019-01-28 22:45:28:4528,0.092499,0.019714,-0.060287,1.040054,0.753769,9.276321
2019-01-28 22:45:28:4528,-0.153122,-0.005447,-0.014175,1.040054,0.753769,9.276321
2019-01-28 22:45:28:4528,-0.153122,-0.005447,-0.014175,1.811737,0.391251,9.795563
2019-01-28 22:45:28:4528,-0.153122,-0.005447,-0.014175,0.787613,0.734619,10.426071
2019-01-28 22:45:28:4528,-0.153122,-0.005447,-0.014175,0.695480,0.562347,10.868744
2019-01-28 22:45:28:4528,-0.153122,-0.005447,-0.014175,0.996979,0.390060,10.623489
2019-01-28 22:45:28:4528,-0.153122,-0.005447,-0.014175,1.437271,0.464233,10.362671
2019-01-28 22:45:28:4528,-0.153122,-0.005447,-0.014175,0.745743,0.802811,9.704636
2019-01-28 22:45:28:4528,-0.153122,-0.005447,-0.014175,-0.122864,1.127045,9.281113
2019-01-28 22:45:28:4528,-0.153122,-0.005447,-0.014175,-0.204224,1.299332,9.048996
2019-01-28 22:45:28:4528,-0.153122,-0.005447,-0.014175,-0.159958,1.302917,8.943726
2019-01-28 22:45:28:4528,-0.153122,-0.005447,-0.014175,-0.109695,1.148575,8.922180
2019-01-28 22:45:28:4528,-0.027466,0.124969,-0.265839,-0.109695,1.148575,8.922180
2019-01-28 22:45:28:4528,-0.027466,0.124969,-0.265839,-0.256866,1.028931,9.172226
2019-01-28 22:45:28:4528,-0.027466,0.124969,-0.265839,-0.104919,0.668823,9.564651
2019-01-28 22:45:28:4528,-0.027466,0.124969,-0.265839,0.484924,0.543198,10.100647
2019-01-28 22:45:28:4528,-0.027466,0.124969,-0.265839,0.329391,0.544388,10.277710
2019-01-28 22:45:28:4528,-0.027466,0.124969,-0.265839,-0.065445,0.733429,10.453598
2019-01-28 22:45:28:4528,-0.027466,0.124969,-0.265839,-0.138428,0.697540,10.753891
2019-01-28 22:45:28:4528,-0.027466,0.124969,-0.265839,0.081726,0.764526,10.734756
2019-01-28 22:45:28:4528,-0.027466,0.124969,-0.265839,-0.139618,0.928436,10.442825
2019-01-28 22:45:28:4528,-0.027466,0.124969,-0.265839,-0.042709,1.091156,10.062363
2019-01-28 22:45:28:4528,-0.027466,0.124969,-0.265839,0.218124,1.191650,9.586197
2019-01-28 22:45:29:4529,0.069595,0.034439,0.005310,0.218124,1.191650,9.586197
2019-01-28 22:45:29:4529,0.069595,0.034439,0.005310,0.407150,1.270615,8.722382
2019-01-28 22:45:29:4529,0.069595,0.034439,0.005310,0.335358,1.002625,8.450806
2019-01-28 22:45:29:4529,0.069595,0.034439,0.005310,0.315033,0.857849,8.824081
2019-01-28 22:45:29:4529,0.069595,0.034439,0.005310,0.539948,0.641296,9.013107
2019-01-28 22:45:29:4529,0.069595,0.034439,0.005310,0.821106,0.410400,9.284698
2019-01-28 22:45:29:4529,0.069595,0.034439,0.005310,0.929977,0.387665,9.806335
2019-01-28 22:45:29:4529,0.069595,0.034439,0.005310,0.639252,0.699936,9.878113
2019-01-28 22:45:29:4529,0.069595,0.034439,0.005310,-0.075012,1.148575,9.849411
2019-01-28 22:45:29:4529,0.069595,0.034439,0.005310,-0.132446,1.081573,10.515808
2019-01-28 22:45:29:4529,0.069595,0.034439,0.005310,0.513626,0.812393,11.037445
2019-01-28 22:45:29:4529,-0.178528,-0.101044,-0.001099,0.513626,0.812393,11.037445
2019-01-28 22:45:29:4529,-0.178528,-0.101044,-0.001099,0.975449,0.681976,11.021881
2019-01-28 22:45:29:4529,-0.178528,-0.101044,-0.001099,0.806747,0.705902,10.354279
2019-01-28 22:45:29:4529,-0.178528,-0.101044,-0.001099,0.636871,0.903320,9.513214
2019-01-28 22:45:29:4529,-0.178528,-0.101044,-0.001099,0.280334,0.698730,9.342117
2019-01-28 22:45:29:4529,-0.178528,-0.101044,-0.001099,0.623703,0.459442,9.970245
2019-01-28 22:45:29:4529,-0.178528,-0.101044,-0.001099,0.798386,0.545593,10.053986
2019-01-28 22:45:29:4529,-0.178528,-0.101044,-0.001099,-0.835922,1.167725,8.821686
2019-01-28 22:45:29:4529,-0.178528,-0.101044,-0.001099,0.788818,0.631729,10.092270
2019-01-28 22:45:29:4529,-0.178528,-0.101044,-0.001099,1.288910,0.731033,10.534943
2019-01-28 22:45:29:4529,-0.178528,-0.101044,-0.001099,1.089111,0.469009,9.896072
2019-01-28 22:45:29:4529,0.117783,0.093750,-0.119110,1.089111,0.469009,9.896072
2019-01-28 22:45:29:4529,0.117783,0.093750,-0.119110,-0.176712,0.854263,9.746506
2019-01-28 22:45:29:4529,0.117783,0.093750,-0.119110,-0.853882,1.068420,9.934341
2019-01-28 22:45:29:4529,0.117783,0.093750,-0.119110,-0.884979,1.575699,9.194962
2019-01-28 22:45:29:4529,0.117783,0.093750,-0.119110,-1.290558,1.274200,8.672134
2019-01-28 22:45:29:4529,0.117783,0.093750,-0.119110,-0.608612,1.137817,8.836044
2019-01-28 22:45:29:4529,0.117783,0.093750,-0.119110,-0.589462,1.621155,8.633850
2019-01-28 22:45:30:4530,0.117783,0.093750,-0.119110,-1.158951,1.893951,8.359863
2019-01-28 22:45:30:4530,0.117783,0.093750,-0.119110,-0.561951,1.660645,9.276321
2019-01-28 22:45:30:4530,0.117783,0.093750,-0.119110,0.286316,1.606812,10.082703
2019-01-28 22:45:30:4530,0.117783,0.093750,-0.119110,0.736160,1.604416,10.710815
2019-01-28 22:45:30:4530,0.038620,0.057281,-0.098221,0.736160,1.604416,10.710815
2019-01-28 22:45:30:4530,0.038620,0.057281,-0.098221,0.664383,1.344788,11.362869
2019-01-28 22:45:30:4530,0.038620,0.057281,-0.098221,0.518417,0.787262,11.307831
2019-01-28 22:45:30:4530,0.038620,0.057281,-0.098221,0.939560,0.684372,10.671341
2019-01-28 22:45:30:4530,0.038620,0.057281,-0.098221,-0.375305,0.333832,10.621094
2019-01-28 22:45:30:4530,0.038620,0.057281,-0.098221,-1.070419,0.384079,10.457184
2019-01-28 22:45:30:4530,0.038620,0.057281,-0.098221,0.745743,1.418961,9.203339
2019-01-28 22:45:30:4530,0.038620,0.057281,-0.098221,0.494492,1.940613,8.367050
2019-01-28 22:45:30:4530,0.038620,0.057281,-0.098221,-0.484177,2.413193,8.233047
2019-01-28 22:45:30:4530,0.038620,0.057281,-0.098221,0.471756,2.510101,8.051193
2019-01-28 22:45:30:4530,0.038620,0.057281,-0.098221,-0.138412,2.181076,8.596756
2019-01-28 22:45:30:4530,0.315948,0.043839,-0.091873,-0.138412,2.181076,8.596756
2019-01-28 22:45:30:4530,0.315948,0.043839,-0.091873,-0.299942,2.080582,9.848206
2019-01-28 22:45:30:4530,0.315948,0.043839,-0.091873,0.409546,1.761139,10.890274
2019-01-28 22:45:30:4530,0.315948,0.043839,-0.091873,0.127197,1.012192,11.642822
2019-01-28 22:45:30:4530,0.315948,0.043839,-0.091873,0.713440,0.705902,12.139328
2019-01-28 22:45:30:4530,0.315948,0.043839,-0.091873,0.793594,1.113892,11.476532
2019-01-28 22:45:30:4530,0.315948,0.043839,-0.091873,0.249222,1.483582,9.835037
2019-01-28 22:45:30:4530,0.315948,0.043839,-0.091873,0.433472,1.891556,8.825272
2019-01-28 22:45:30:4530,0.315948,0.043839,-0.091873,0.569855,2.197830,8.880310
2019-01-28 22:45:30:4530,0.315948,0.043839,-0.091873,-0.122864,2.691956,8.635056
2019-01-28 22:45:30:4530,0.315948,0.043839,-0.091873,-1.056061,1.893951,9.155487
2019-01-28 22:45:30:4530,0.110275,-0.070313,-0.144409,-1.056061,1.893951,9.155487
2019-01-28 22:45:30:4530,0.110275,-0.070313,-0.144409,-0.085770,1.704910,9.233261
2019-01-28 22:45:30:4530,0.110275,-0.070313,-0.144409,0.125992,2.292358,9.043015
2019-01-28 22:45:30:4530,0.110275,-0.070313,-0.144409,-0.730652,2.701523,9.215302
2019-01-28 22:45:30:4530,0.110275,-0.070313,-0.144409,-0.679199,1.753967,9.015503
2019-01-28 22:45:30:4530,0.110275,-0.070313,-0.144409,0.879730,1.524261,8.986801
2019-01-28 22:45:30:4530,0.110275,-0.070313,-0.144409,1.087906,2.143997,8.755890
2019-01-28 22:45:30:4530,0.110275,-0.070313,-0.144409,-0.511703,2.578293,9.111221
2019-01-28 22:45:30:4530,0.110275,-0.070313,-0.144409,0.110443,1.958542,9.218887
2019-01-28 22:45:30:4530,0.110275,-0.070313,-0.144409,1.287704,2.163147,8.915009
2019-01-28 22:45:30:4530,0.110275,-0.070313,-0.144409,-0.567932,2.130829,7.476913
2019-01-28 22:45:30:4530,0.053650,-0.038986,-0.000183,-0.567932,2.130829,7.476913
2019-01-28 22:45:30:4530,0.053650,-0.038986,-0.000183,-0.865845,2.310303,8.417297
2019-01-28 22:45:30:4530,0.053650,-0.038986,-0.000183,-0.113297,2.108109,9.321777
2019-01-28 22:45:30:4530,0.053650,-0.038986,-0.000183,0.780441,2.029144,9.551498
2019-01-28 22:45:30:4530,0.053650,-0.038986,-0.000183,1.522202,2.047089,10.444016
2019-01-28 22:45:30:4530,0.053650,-0.038986,-0.000183,1.153702,2.510086,10.712021
2019-01-28 22:45:30:4530,0.053650,-0.038986,-0.000183,0.190598,3.462448,10.589981
2019-01-28 22:45:30:4530,0.053650,-0.038986,-0.000183,-0.058258,3.718475,10.156876
2019-01-28 22:45:30:4530,0.053650,-0.038986,-0.000183,0.803162,2.851074,10.182007
2019-01-28 22:45:30:4530,0.053650,-0.038986,-0.000183,1.194382,0.770508,10.582809
2019-01-28 22:45:30:4530,0.053650,-0.038986,-0.000183,1.921814,1.865234,11.102051
2019-01-28 22:45:30:4530,0.017609,-0.061279,0.078857,1.921814,1.865234,11.102051
2019-01-28 22:45:30:4530,0.017609,-0.061279,0.078857,0.530380,0.725052,10.782608
2019-01-28 22:45:30:4530,0.017609,-0.061279,0.078857,0.645233,1.368729,10.293274
2019-01-28 22:45:30:4530,0.017609,-0.061279,0.078857,0.025497,2.331833,9.331360
2019-01-28 22:45:30:4530,0.017609,-0.061279,0.078857,-0.587082,3.114288,9.697464
2019-01-28 22:45:30:4530,0.017609,-0.061279,0.078857,-0.544006,2.933624,11.671539
2019-01-28 22:45:30:4530,0.017609,-0.061279,0.078857,-0.067825,2.810394,11.586594
2019-01-28 22:45:30:4530,0.017609,-0.061279,0.078857,0.632080,2.961151,9.635239
2019-01-28 22:45:30:4530,0.017609,-0.061279,0.078857,0.898880,2.730240,8.121780
2019-01-28 22:45:30:4530,0.017609,-0.061279,0.078857,0.268372,3.090347,6.759079
2019-01-28 22:45:30:4530,0.017609,-0.061279,0.078857,-0.217377,3.104721,7.115601
2019-01-28 22:45:30:4530,0.215347,0.114212,-0.077454,-0.217377,3.104721,7.115601
2019-01-28 22:45:30:4530,0.215347,0.114212,-0.077454,-0.500931,2.839111,6.662170
2019-01-28 22:45:30:4530,0.215347,0.114212,-0.077454,1.061584,2.640503,6.634644
2019-01-28 22:45:30:4530,0.215347,0.114212,-0.077454,-0.006821,1.325653,8.760666
2019-01-28 22:45:30:4530,0.215347,0.114212,-0.077454,-1.592056,0.899734,12.281708
2019-01-28 22:45:30:4530,0.215347,0.114212,-0.077454,-1.015396,1.286179,12.257782
2019-01-28 22:45:30:4530,0.215347,0.114212,-0.077454,1.660995,1.611588,10.237045
2019-01-28 22:45:30:4530,0.215347,0.114212,-0.077454,2.577438,1.831726,8.373032
2019-01-28 22:45:30:4530,0.215347,0.114212,-0.077454,1.019714,1.842499,8.800156
2019-01-28 22:45:30:4530,0.215347,0.114212,-0.077454,0.286316,1.543396,11.248001
2019-01-28 22:45:30:4530,0.215347,0.114212,-0.077454,-0.378891,1.663040,12.034058
2019-01-28 22:45:30:4530,-0.286957,-0.449112,0.029495,-0.378891,1.663040,12.034058
2019-01-28 22:45:30:4530,-0.286957,-0.449112,0.029495,-0.165939,1.940613,9.844620
2019-01-28 22:45:30:4530,-0.286957,-0.449112,0.029495,0.093689,2.059052,8.297653
2019-01-28 22:45:30:4530,-0.286957,-0.449112,0.029495,0.080536,2.194244,9.057373
2019-01-28 22:45:30:4530,-0.286957,-0.449112,0.029495,0.169067,2.056656,10.686890
2019-01-28 22:45:30:4530,-0.286957,-0.449112,0.029495,0.859406,1.657059,10.129364
2019-01-28 22:45:31:4531,-0.286957,-0.449112,0.029495,1.071152,1.811386,9.459381
2019-01-28 22:45:32:4532,-0.286957,-0.449112,0.029495,1.269760,1.844894,9.044220
2019-01-28 22:45:32:4532,-0.286957,-0.449112,0.029495,1.273361,1.206009,8.808533
2019-01-28 22:45:32:4532,-0.286957,-0.449112,0.029495,1.432480,1.788666,9.285889
2019-01-28 22:45:32:4532,-0.286957,-0.449112,0.029495,0.739761,2.349777,9.223679
2019-01-28 22:45:32:4532,0.057678,0.105362,-0.081360,0.739761,2.349777,9.223679
2019-01-28 22:45:32:4532,0.057678,0.105362,-0.081360,0.275543,1.642700,9.016693
2019-01-28 22:45:32:4532,0.057678,0.105362,-0.081360,1.014938,2.280396,9.433044
2019-01-28 22:45:32:4532,0.057678,0.105362,-0.081360,0.498077,1.964539,9.910416
2019-01-28 22:45:32:4532,0.057678,0.105362,-0.081360,0.749329,2.477798,10.165253
2019-01-28 22:45:32:4532,0.024521,0.003525,0.031754,0.749329,2.477798,10.165253
2019-01-28 22:45:32:4532,0.024521,0.003525,0.031754,0.560287,2.530426,9.692673
2019-01-28 22:45:32:4532,0.024521,0.003525,0.031754,0.621307,2.683578,9.020294
2019-01-28 22:45:32:4532,0.024521,0.003525,0.031754,0.621307,2.727844,8.456772
2019-01-28 22:45:32:4532,0.024521,0.003525,0.031754,0.654816,2.417969,8.606339
2019-01-28 22:45:32:4532,0.024521,0.003525,0.031754,1.119019,1.710892,9.088486
2019-01-28 22:45:32:4532,0.024521,0.003525,0.031754,1.037659,0.995438,9.686691
2019-01-28 22:45:32:4532,0.024521,0.003525,0.031754,0.703857,0.569519,9.558670
2019-01-28 22:45:32:4532,0.024521,0.003525,0.031754,0.562683,0.955963,8.633850
2019-01-28 22:45:32:4532,0.024521,0.003525,0.031754,-0.027145,2.228943,7.486496
2019-01-28 22:45:32:4532,-0.303696,-0.018036,-0.002701,-0.027145,2.228943,7.486496
2019-01-28 22:45:32:4532,-0.303696,-0.018036,-0.002701,-1.063248,3.646683,6.378616
2019-01-28 22:45:32:4532,-0.303696,-0.018036,-0.002701,-1.483185,4.431534,6.665756
2019-01-28 22:45:32:4532,-0.303696,-0.018036,-0.002701,-1.141022,3.863235,9.086090
2019-01-28 22:45:32:4532,-0.303696,-0.018036,-0.002701,0.237259,2.608200,12.711212
2019-01-28 22:45:32:4532,-0.303696,-0.018036,-0.002701,2.272354,1.337616,14.845612
2019-01-28 22:45:32:4532,-0.303696,-0.018036,-0.002701,3.389801,0.071808,15.057388
2019-01-28 22:45:32:4532,-0.303696,-0.018036,-0.002701,3.239059,-0.775253,14.569244
2019-01-28 22:45:32:4532,-0.303696,-0.018036,-0.002701,2.201767,0.201019,13.530762
2019-01-28 22:45:32:4532,-0.303696,-0.018036,-0.002701,0.323410,2.185867,11.330566
2019-01-28 22:45:32:4532,-0.303696,-0.018036,-0.002701,-1.040512,3.427734,8.514206
2019-01-28 22:45:32:4532,0.163422,0.000900,-0.148132,-1.040512,3.427734,8.514206
2019-01-28 22:45:32:4532,0.163422,0.000900,-0.148132,-0.719879,3.619171,6.693268
2019-01-28 22:45:32:4532,0.163422,0.000900,-0.148132,-0.079803,3.437317,6.327164
2019-01-28 22:45:32:4532,0.163422,0.000900,-0.148132,0.490906,3.055664,6.145309
2019-01-28 22:45:32:4532,0.163422,0.000900,-0.148132,1.343933,2.090149,6.702850
2019-01-28 22:45:32:4532,0.163422,0.000900,-0.148132,1.799774,0.935623,8.072723
2019-01-28 22:45:32:4532,0.163422,0.000900,-0.148132,2.198181,-0.035873,9.616104
2019-01-28 22:45:32:4532,0.163422,0.000900,-0.148132,2.013931,-0.430695,9.328964
2019-01-28 22:45:32:4532,0.163422,0.000900,-0.148132,1.158493,0.055069,8.328766
2019-01-28 22:45:32:4532,0.163422,0.000900,-0.148132,-0.027145,0.792053,8.276123
2019-01-28 22:45:32:4532,-0.282867,-0.046555,-0.228882,-0.027145,0.792053,8.276123
2019-01-28 22:45:32:4532,-0.282867,-0.046555,-0.228882,-0.554764,1.371109,9.296661
2019-01-28 22:45:32:4532,-0.282867,-0.046555,-0.228882,-0.718674,1.011002,10.189178
2019-01-28 22:45:32:4532,-0.282867,-0.046555,-0.228882,-0.042709,0.055069,11.748108
2019-01-28 22:45:32:4532,-0.282867,-0.046555,-0.228882,0.815125,-0.106461,13.346512
2019-01-28 22:45:32:4532,-0.282867,-0.046555,-0.228882,1.107056,0.352966,12.695663
2019-01-28 22:45:32:4532,-0.282867,-0.046555,-0.228882,0.605759,0.671219,10.691681
2019-01-28 22:45:32:4532,-0.282867,-0.046555,-0.228882,0.124802,1.167725,9.507233
2019-01-28 22:45:32:4532,-0.282867,-0.046555,-0.228882,0.382019,1.655869,8.526169
2019-01-28 22:45:32:4532,-0.282867,-0.046555,-0.228882,0.663193,1.983673,7.284302
2019-01-28 22:45:32:4532,-0.282867,-0.046555,-0.228882,0.310242,2.323456,6.504242
2019-01-28 22:45:32:4532,-0.034988,-0.211243,0.133469,0.310242,2.323456,6.504242
2019-01-28 22:45:32:4532,-0.034988,-0.211243,0.133469,0.529190,2.541199,6.640625
2019-01-28 22:45:32:4532,-0.034988,-0.211243,0.133469,0.545944,2.044693,8.192383
2019-01-28 22:45:32:4532,-0.034988,-0.211243,0.133469,1.504257,0.670013,10.975220
2019-01-28 22:45:32:4532,-0.034988,-0.211243,0.133469,2.454208,-0.123215,13.805939
2019-01-28 22:45:32:4532,-0.034988,-0.211243,0.133469,2.598984,-0.095688,14.027267
2019-01-28 22:45:32:4532,-0.034988,-0.211243,0.133469,1.615524,0.783676,12.103439
2019-01-28 22:45:32:4532,-0.034988,-0.211243,0.133469,-0.138412,1.890350,10.910614
2019-01-28 22:45:32:4532,-0.034988,-0.211243,0.133469,-0.816788,2.386871,9.514404
2019-01-28 22:45:32:4532,-0.034988,-0.211243,0.133469,-0.352570,2.012390,8.709229
2019-01-28 22:45:32:4532,0.160797,0.065033,0.240723,-0.352570,2.012390,8.709229
2019-01-28 22:45:32:4532,0.160797,0.065033,0.240723,0.825897,1.433334,8.607529
2019-01-28 22:45:32:4532,0.160797,0.065033,0.240723,1.639450,1.172501,8.635040
2019-01-28 22:45:32:4532,0.160797,0.065033,0.240723,1.438461,1.081589,8.800156
2019-01-28 22:45:32:4532,0.160797,0.065033,0.240723,1.416916,0.874603,8.247406
2019-01-28 22:45:32:4532,0.160797,0.065033,0.240723,1.005356,0.598236,8.115799
2019-01-28 22:45:32:4532,0.160797,0.065033,0.240723,0.519608,1.040909,8.222275
2019-01-28 22:45:32:4532,0.160797,0.065033,0.240723,0.352112,1.726456,7.715012
2019-01-28 22:45:32:4532,0.160797,0.065033,0.240723,0.842636,1.440506,7.224472
2019-01-28 22:45:32:4532,0.160797,0.065033,0.240723,1.315231,1.148590,8.028473
2019-01-28 22:45:32:4532,0.160797,0.065033,0.240723,1.345139,1.473999,9.715408
2019-01-28 22:45:32:4532,0.160797,0.065033,0.240723,1.379837,1.931030,10.478714
2019-01-28 22:45:32:4532,0.160797,0.065033,0.240723,1.710037,1.380692,11.264755
2019-01-28 22:45:32:4532,0.160797,0.065033,0.240723,2.194595,0.287170,13.120392
2019-01-28 22:45:32:4532,0.160797,0.065033,0.240723,2.131180,-0.559906,15.891281
2019-01-28 22:45:32:4532,0.160797,0.065033,0.240723,1.337952,-0.211746,16.872345
2019-01-28 22:45:32:4532,0.160797,0.065033,0.240723,-0.220963,0.218979,15.144730
2019-01-28 22:45:32:4532,0.160797,0.065033,0.240723,-0.829941,1.076797,12.014908
2019-01-28 22:45:32:4532,0.160797,0.065033,0.240723,-1.044098,2.160751,9.234451
2019-01-28 22:45:32:4532,0.160797,0.065033,0.240723,-0.804825,3.159744,7.400345
2019-01-28 22:45:32:4532,-0.040298,-0.033554,0.186661,-0.804825,3.159744,7.400345
2019-01-28 22:45:32:4532,-0.040298,-0.033554,0.186661,-0.874207,3.348785,6.629868
2019-01-28 22:45:32:4532,-0.040298,-0.033554,0.186661,0.129578,2.721863,5.683502
2019-01-28 22:45:32:4532,-0.040298,-0.033554,0.186661,1.464783,1.659454,5.465759
2019-01-28 22:45:32:4532,-0.040298,-0.033554,0.186661,2.240051,1.044495,6.142914
2019-01-28 22:45:32:4532,-0.040298,-0.033554,0.186661,2.716232,1.067230,7.112015
2019-01-28 22:45:32:4532,-0.040298,-0.033554,0.186661,2.598984,0.849472,7.519989
2019-01-28 22:45:32:4532,-0.040298,-0.033554,0.186661,2.173050,0.345779,8.185196
2019-01-28 22:45:32:4532,-0.040298,-0.033554,0.186661,1.753113,0.378098,9.459366
2019-01-28 22:45:32:4532,-0.040298,-0.033554,0.186661,1.342743,0.695145,9.964264
2019-01-28 22:45:32:4532,-0.040298,-0.033554,0.186661,1.218323,0.513290,9.890076
2019-01-28 22:45:32:4532,0.045898,0.017639,0.254288,1.218323,0.513290,9.890076
2019-01-28 22:45:32:4532,0.045898,0.017639,0.254288,1.121414,0.497726,9.769241
2019-01-28 22:45:32:4532,0.045898,0.017639,0.254288,0.784012,0.320663,9.223679
2019-01-28 22:45:32:4532,0.045898,0.017639,0.254288,0.677536,0.013184,7.985397
2019-01-28 22:45:32:4532,0.045898,0.017639,0.254288,0.525604,0.230942,7.097656
2019-01-28 22:45:32:4532,0.045898,0.017639,0.254288,0.208542,1.188065,5.636841
2019-01-28 22:45:32:4532,0.045898,0.017639,0.254288,-0.420776,2.043503,4.933350
2019-01-28 22:45:32:4532,0.045898,0.017639,0.254288,0.125992,1.274200,6.516205
2019-01-28 22:45:32:4532,0.045898,0.017639,0.254288,1.829681,-0.658005,10.385391
2019-01-28 22:45:32:4532,0.045898,0.017639,0.254288,2.634872,-1.836472,15.104034
2019-01-28 22:45:32:4532,-0.415802,0.208832,-0.174347,2.634872,-1.836472,15.104034
2019-01-28 22:45:32:4532,-0.415802,0.208832,-0.174347,3.260590,-1.555313,15.748901
2019-01-28 22:45:32:4532,-0.415802,0.208832,-0.174347,2.302277,0.038315,12.046005
2019-01-28 22:45:32:4532,-0.415802,0.208832,-0.174347,-0.463852,2.707504,10.325577
2019-01-28 22:45:32:4532,-0.415802,0.208832,-0.174347,-1.940216,3.607208,12.377426
2019-01-28 22:45:32:4532,-0.415802,0.208832,-0.174347,-0.600235,1.507507,13.908829
2019-01-28 22:45:32:4532,-0.415802,0.208832,-0.174347,0.224106,0.488159,12.821289
2019-01-28 22:45:32:4532,-0.415802,0.208832,-0.174347,0.293488,0.727448,9.451004
2019-01-28 22:45:32:4532,-0.415802,0.208832,-0.174347,0.110443,1.411789,4.579208
2019-01-28 22:45:32:4532,-0.415802,0.208832,-0.174347,-0.352570,2.483780,1.598953
2019-01-28 22:45:32:4532,-0.415802,0.208832,-0.174347,-1.015396,3.518677,3.094467
2019-01-28 22:45:33:4533,0.540329,0.400162,-0.231277,-1.015396,3.518677,3.094467
2019-01-28 22:45:33:4533,0.540329,0.400162,-0.231277,-0.247299,3.757950,7.153885
2019-01-28 22:45:34:4534,0.540329,0.400162,-0.231277,0.181030,3.682587,10.444016
2019-01-28 22:45:34:4534,0.540329,0.400162,-0.231277,0.234863,2.348587,11.842621
2019-01-28 22:45:34:4534,0.540329,0.400162,-0.231277,1.285309,0.770523,12.939743
2019-01-28 22:45:34:4534,0.540329,0.400162,-0.231277,2.506851,-0.046646,13.912415
2019-01-28 22:45:34:4534,0.540329,0.400162,-0.231277,2.870560,0.946381,13.723389
2019-01-28 22:45:34:4534,0.540329,0.400162,-0.231277,1.200378,3.419373,15.188995
2019-01-28 22:45:35:4535,0.540329,0.400162,-0.231277,0.431076,4.512894,17.664368
2019-01-28 22:45:36:4536,0.540329,0.400162,-0.231277,1.365479,2.835526,19.375229
2019-01-28 22:45:36:4536,-0.553848,-0.636093,0.220078,1.365479,2.835526,19.375229
2019-01-28 22:45:36:4536,-0.553848,-0.636093,0.220078,3.781036,-2.352127,20.826477
2019-01-28 22:45:36:4536,-0.553848,-0.636093,0.220078,6.645248,-5.004562,18.619095
2019-01-28 22:45:36:4536,-0.553848,-0.636093,0.220078,5.087509,-2.599777,13.464951
2019-01-28 22:45:36:4536,-0.553848,-0.636093,0.220078,0.190598,1.174911,8.483109
2019-01-28 22:45:36:4536,-0.553848,-0.636093,0.220078,-3.970520,4.133621,3.963058
2019-01-28 22:45:36:4536,-0.553848,-0.636093,0.220078,-4.225357,5.041702,1.261566
2019-01-28 22:45:36:4536,-0.553848,-0.636093,0.220078,-1.522675,3.003021,1.205338
2019-01-28 22:45:36:4536,-0.553848,-0.636093,0.220078,1.828491,0.459457,1.860962
2019-01-28 22:45:36:4536,-0.553848,-0.636093,0.220078,3.818115,-0.468979,3.281113
2019-01-28 22:45:36:4536,-0.553848,-0.636093,0.220078,3.792999,-1.021713,6.262558
2019-01-28 22:45:36:4536,0.114319,-0.025970,-0.353516,3.792999,-1.021713,6.262558
2019-01-28 22:45:36:4536,0.114319,-0.025970,-0.353516,3.253418,-1.604370,8.100250
2019-01-28 22:45:36:4536,0.114319,-0.025970,-0.353516,2.637268,-1.293304,8.400543
2019-01-28 22:45:36:4536,0.114319,-0.025970,-0.353516,2.123993,0.234528,8.060760
2019-01-28 22:45:36:4536,0.114319,-0.025970,-0.353516,0.665573,1.873611,6.111816
2019-01-28 22:45:36:4536,0.114319,-0.025970,-0.353516,-0.296341,2.045883,4.288483
2019-01-28 22:45:36:4536,0.114319,-0.025970,-0.353516,0.367661,1.154556,6.059174
2019-01-28 22:45:36:4536,0.114319,-0.025970,-0.353516,0.945526,0.622162,10.061172
2019-01-28 22:45:36:4536,0.114319,-0.025970,-0.353516,0.833069,0.607803,13.078522
2019-01-28 22:45:36:4536,0.114319,-0.025970,-0.353516,0.605759,0.120865,13.423080
2019-01-28 22:45:36:4536,0.157379,0.172302,-0.488388,0.605759,0.120865,13.423080
2019-01-28 22:45:36:4536,0.157379,0.172302,-0.488388,1.681320,-0.324219,12.398956
2019-01-28 22:45:36:4536,0.157379,0.172302,-0.488388,1.920609,1.768326,12.190781
2019-01-28 22:45:36:4536,0.157379,0.172302,-0.488388,-0.023560,4.707901,12.214706
2019-01-28 22:45:36:4536,0.157379,0.172302,-0.488388,-1.240311,4.878998,10.141327
2019-01-28 22:45:36:4536,0.157379,0.172302,-0.488388,0.117615,3.153763,8.120590
2019-01-28 22:45:36:4536,0.157379,0.172302,-0.488388,2.449432,1.870010,8.694870
2019-01-28 22:45:36:4536,0.157379,0.172302,-0.488388,2.953110,1.573303,9.369644
2019-01-28 22:45:36:4536,0.157379,0.172302,-0.488388,2.332169,1.481186,8.021286
2019-01-28 22:45:36:4536,0.157379,0.172302,-0.488388,2.320206,0.031128,8.302444
2019-01-28 22:45:36:4536,0.157379,0.172302,-0.488388,2.793991,-1.397385,9.948700
2019-01-28 22:45:36:4536,0.452606,0.054657,-0.306717,2.793991,-1.397385,9.948700
2019-01-28 22:45:36:4536,0.452606,0.054657,-0.306717,2.573853,-1.398590,11.128372
2019-01-28 22:45:36:4536,0.452606,0.054657,-0.306717,1.241043,-0.057404,9.763260
2019-01-28 22:45:36:4536,0.452606,0.054657,-0.306717,-1.420975,2.394043,7.247208
2019-01-28 22:45:36:4536,0.452606,0.054657,-0.306717,-4.404831,5.468826,4.706024
2019-01-28 22:45:36:4536,0.452606,0.054657,-0.306717,-5.345200,10.523666,2.023682
2019-01-28 22:45:36:4536,0.452606,0.054657,-0.306717,-1.760757,6.520462,3.738129
2019-01-28 22:45:36:4536,0.452606,0.054657,-0.306717,2.670761,-3.915833,13.423080
2019-01-28 22:45:36:4536,0.452606,0.054657,-0.306717,6.829483,-12.181839,32.173233
2019-01-28 22:45:36:4536,0.452606,0.054657,-0.306717,8.291504,-8.450241,26.852798
2019-01-28 22:45:36:4536,0.088776,0.020569,0.131271,8.291504,-8.450241,26.852798
2019-01-28 22:45:36:4536,0.088776,0.020569,0.131271,2.938751,-0.613739,12.462357
2019-01-28 22:45:36:4536,0.088776,0.020569,0.131271,-5.336823,6.580292,2.575226
2019-01-28 22:45:36:4536,0.088776,0.020569,0.131271,-7.453278,7.576904,2.368240
2019-01-28 22:45:36:4536,0.088776,0.020569,0.131271,-5.298538,5.275009,4.098251
2019-01-28 22:45:36:4536,0.088776,0.020569,0.131271,-2.238113,1.920258,1.293869
2019-01-28 22:45:36:4536,0.088776,0.020569,0.131271,1.349930,-0.698685,-1.456696
2019-01-28 22:45:36:4536,0.088776,0.020569,0.131271,4.369659,-0.859009,-0.394287
2019-01-28 22:45:36:4536,0.088776,0.020569,0.131271,3.844452,1.563736,1.533142
2019-01-28 22:45:36:4536,0.088776,0.020569,0.131271,0.422699,2.318665,5.504044
2019-01-28 22:45:36:4536,0.088776,0.020569,0.131271,-1.806213,0.973907,16.666550
2019-01-28 22:45:36:4536,-0.420013,-0.089020,0.454834,-1.806213,0.973907,16.666550
2019-01-28 22:45:36:4536,-0.420013,-0.089020,0.454834,0.364075,-0.612549,24.850006
2019-01-28 22:45:36:4536,-0.420013,-0.089020,0.454834,2.944748,0.253662,20.655396
2019-01-28 22:45:36:4536,-0.420013,-0.089020,0.454834,2.096481,2.707504,13.126373
2019-01-28 22:45:36:4536,-0.420013,-0.089020,0.454834,0.216919,4.700729,12.105835
2019-01-28 22:45:36:4536,-0.420013,-0.089020,0.454834,-1.251083,4.243698,14.480713
2019-01-28 22:45:36:4536,-0.420013,-0.089020,0.454834,-0.977097,2.626144,13.322586
2019-01-28 22:45:36:4536,-0.420013,-0.089020,0.454834,-0.674408,2.401230,9.812317
2019-01-28 22:45:36:4536,-0.420013,-0.089020,0.454834,-0.365738,3.054474,6.091476
2019-01-28 22:45:36:4536,-0.420013,-0.089020,0.454834,-0.040314,3.139420,4.237045
2019-01-28 22:45:36:4536,0.167572,-0.043320,0.359909,-0.040314,3.139420,4.237045
2019-01-28 22:45:36:4536,0.167572,-0.043320,0.359909,0.286316,1.695343,6.844025
2019-01-28 22:45:36:4536,0.167572,-0.043320,0.359909,0.939560,0.275208,11.737335
2019-01-28 22:45:36:4536,0.167572,-0.043320,0.359909,1.984024,-0.230881,13.402740
2019-01-28 22:45:36:4536,0.167572,-0.043320,0.359909,2.549927,0.052673,10.656982
2019-01-28 22:45:36:4536,0.167572,-0.043320,0.359909,0.918015,1.324448,7.378815
2019-01-28 22:45:36:4536,0.167572,-0.043320,0.359909,-0.628952,2.512482,6.369049
2019-01-28 22:45:36:4536,0.167572,-0.043320,0.359909,0.295883,2.482574,7.222076
2019-01-28 22:45:36:4536,0.167572,-0.043320,0.359909,1.915833,-0.778854,10.256180
2019-01-28 22:45:36:4536,0.167572,-0.043320,0.359909,3.716431,-4.760498,15.617310
2019-01-28 22:45:36:4536,0.167572,-0.043320,0.359909,4.399582,-5.102676,16.866364
2019-01-28 22:45:36:4536,-0.370224,-0.198914,0.140732,4.399582,-5.102676,16.866364
2019-01-28 22:45:36:4536,-0.370224,-0.198914,0.140732,1.890701,-2.114044,12.147705
2019-01-28 22:45:36:4536,-0.370224,-0.198914,0.140732,-1.653076,1.541000,6.189575
2019-01-28 22:45:36:4536,-0.370224,-0.198914,0.140732,-3.131836,3.463638,1.408722
2019-01-28 22:45:36:4536,-0.370224,-0.198914,0.140732,-1.677002,2.991058,0.651382
2019-01-28 22:45:36:4536,-0.370224,-0.198914,0.140732,0.316223,1.630737,3.188980
2019-01-28 22:45:36:4536,-0.370224,-0.198914,0.140732,1.645432,0.532440,6.083099
2019-01-28 22:45:36:4536,-0.370224,-0.198914,0.140732,1.742340,-0.354126,8.858780
2019-01-28 22:45:36:4536,-0.370224,-0.198914,0.140732,1.516220,-1.527802,10.039627
2019-01-28 22:45:36:4536,-0.370224,-0.198914,0.140732,1.963684,-2.152328,10.920197
2019-01-28 22:45:36:4536,0.087067,0.439499,-0.055954,1.963684,-2.152328,10.920197
2019-01-28 22:45:36:4536,0.087067,0.439499,-0.055954,2.128784,-1.404572,11.525574
2019-01-28 22:45:36:4536,0.087067,0.439499,-0.055954,1.418121,0.239304,11.676315
2019-01-28 22:45:36:4536,0.087067,0.439499,-0.055954,0.002762,1.210785,11.792374
2019-01-28 22:45:36:4536,0.087067,0.439499,-0.055954,-0.236526,0.936813,11.652390
2019-01-28 22:45:36:4536,0.087067,0.439499,-0.055954,-0.025955,0.373306,11.516006
2019-01-28 22:45:36:4536,0.087067,0.439499,-0.055954,-0.110901,0.478592,11.062561
2019-01-28 22:45:36:4536,0.087067,0.439499,-0.055954,-0.230545,1.646286,9.254791
2019-01-28 22:45:36:4536,0.087067,0.439499,-0.055954,-0.644501,3.509109,6.656189
2019-01-28 22:45:36:4536,0.087067,0.439499,-0.055954,-0.624161,4.162338,6.103439
2019-01-28 22:45:36:4536,0.087067,0.439499,-0.055954,0.233673,1.813782,9.734543
2019-01-28 22:45:36:4536,-0.065643,-0.069962,0.124603,0.233673,1.813782,9.734543
2019-01-28 22:45:36:4536,-0.065643,-0.069962,0.124603,1.599976,-1.764694,16.994370
2019-01-28 22:45:36:4536,-0.065643,-0.069962,0.124603,3.057205,-3.393005,19.551102
2019-01-28 22:45:36:4536,-0.065643,-0.069962,0.124603,2.260391,-1.658218,15.081314
2019-01-28 22:45:36:4536,-0.065643,-0.069962,0.124603,0.315033,0.957153,10.182007
2019-01-28 22:45:36:4536,-0.065643,-0.069962,0.124603,-1.380295,3.145386,6.264954
2019-01-28 22:45:36:4536,-0.065643,-0.069962,0.124603,-1.747589,3.311691,5.566254
2019-01-28 22:45:36:4536,-0.065643,-0.069962,0.124603,-0.289169,1.544586,7.603729
2019-01-28 22:45:36:4536,-0.065643,-0.069962,0.124603,1.220703,-0.156708,9.392380
2019-01-28 22:45:36:4536,-0.065643,-0.069962,0.124603,2.202957,-1.128189,10.146118
2019-01-28 22:45:36:4536,0.025177,0.067841,0.151428,2.202957,-1.128189,10.146118
2019-01-28 22:45:36:4536,0.025177,0.067841,0.151428,1.738754,-0.833878,9.752502
2019-01-28 22:45:36:4536,0.025177,0.067841,0.151428,0.562683,0.326645,8.797760
2019-01-28 22:45:36:4536,0.025177,0.067841,0.151428,0.149933,0.927246,7.823883
2019-01-28 22:45:36:4536,0.025177,0.067841,0.151428,0.282715,0.638916,8.253387
2019-01-28 22:45:36:4536,0.025177,0.067841,0.151428,0.721802,0.539612,9.823074
2019-01-28 22:45:36:4536,0.025177,0.067841,0.151428,1.056808,0.502518,9.995361
2019-01-28 22:45:36:4536,0.025177,0.067841,0.151428,0.848633,0.436722,8.754684
2019-01-28 22:45:36:4536,0.025177,0.067841,0.151428,0.309052,0.059845,8.761871
2019-01-28 22:45:36:4536,0.025177,0.067841,0.151428,0.728989,0.011993,9.436646
2019-01-28 22:45:36:4536,0.025177,0.067841,0.151428,0.703857,0.247681,10.289688
2019-01-28 22:45:36:4536,0.094696,0.035782,-0.043060,0.703857,0.247681,10.289688
2019-01-28 22:45:36:4536,0.094696,0.035782,-0.043060,0.677536,0.394836,10.938141
2019-01-28 22:45:36:4536,0.094696,0.035782,-0.043060,0.407150,0.825546,11.003937
2019-01-28 22:45:36:4536,0.094696,0.035782,-0.043060,0.201370,1.153366,10.506226
2019-01-28 22:45:36:4536,0.094696,0.035782,-0.043060,0.305450,0.979889,9.586197
2019-01-28 22:45:36:4536,0.094696,0.035782,-0.043060,0.486115,0.533630,9.419891
2019-01-28 22:45:36:4536,0.094696,0.035782,-0.043060,0.557892,0.525253,8.759476
2019-01-28 22:45:36:4536,0.094696,0.035782,-0.043060,0.434662,0.526443,7.718597
2019-01-28 22:45:36:4536,0.094696,0.035782,-0.043060,0.593796,-0.151932,6.995956
2019-01-28 22:45:36:4536,0.094696,0.035782,-0.043060,1.202774,-1.143753,8.892273
2019-01-28 22:45:36:4536,0.341049,-0.043564,-0.201340,1.202774,-1.143753,8.892273
2019-01-28 22:45:36:4536,0.341049,-0.043564,-0.201340,2.058197,-2.535172,13.243622
2019-01-28 22:45:36:4536,0.341049,-0.043564,-0.201340,2.311844,-4.043854,16.885498
2019-01-28 22:45:36:4536,0.341049,-0.043564,-0.201340,1.113037,-2.691910,9.662766
2019-01-28 22:45:36:4536,0.341049,-0.043564,-0.201340,0.402374,-1.302872,7.115601
2019-01-28 22:45:36:4536,0.341049,-0.043564,-0.201340,0.108047,-0.468979,7.380005
2019-01-28 22:45:36:4536,0.341049,-0.043564,-0.201340,-0.039108,0.190262,7.307037
2019-01-28 22:45:36:4536,0.341049,-0.043564,-0.201340,0.112839,0.650879,7.741333
2019-01-28 22:45:36:4536,0.341049,-0.043564,-0.201340,0.566269,0.832733,9.317001
2019-01-28 22:45:36:4536,0.341049,-0.043564,-0.201340,1.002960,1.485962,10.153290
2019-01-28 22:45:36:4536,0.341049,-0.043564,-0.201340,0.959885,2.138016,8.630264
2019-01-28 22:45:36:4536,-0.514938,0.249756,0.085510,0.959885,2.138016,8.630264
2019-01-28 22:45:36:4536,-0.514938,0.249756,0.085510,0.634476,1.541000,6.342728
2019-01-28 22:45:36:4536,-0.514938,0.249756,0.085510,-0.023560,0.575500,7.133545
2019-01-28 22:45:36:4536,-0.514938,0.249756,0.085510,-0.462646,-0.240463,6.337936
2019-01-28 22:45:36:4536,-0.514938,0.249756,0.085510,-0.394455,-0.208160,5.267151
2019-01-28 22:45:36:4536,-0.514938,0.249756,0.085510,-0.829941,0.402023,5.559067
2019-01-28 22:45:36:4536,-0.514938,0.249756,0.085510,-0.832336,1.113876,6.626266
2019-01-28 22:45:36:4536,-0.514938,0.249756,0.085510,0.047028,1.538605,7.552292
2019-01-28 22:45:36:4536,-0.514938,0.249756,0.085510,1.062790,1.831741,9.339722
2019-01-28 22:45:36:4536,-0.514938,0.249756,0.085510,1.199173,1.578094,11.944321
2019-01-28 22:45:36:4536,-0.295822,-0.375137,0.191864,1.199173,1.578094,11.944321
2019-01-28 22:45:36:4536,-0.295822,-0.375137,0.191864,0.861786,0.454666,14.790588
2019-01-28 22:45:36:4536,-0.295822,-0.375137,0.191864,0.867767,-0.191406,16.631866
2019-01-28 22:45:36:4536,-0.295822,-0.375137,0.191864,1.486313,-0.083725,16.192780
2019-01-28 22:45:36:4536,-0.295822,-0.375137,0.191864,1.908646,0.224960,15.104050
2019-01-28 22:45:36:4536,-0.295822,-0.375137,0.191864,1.561691,-0.087311,16.749115
2019-01-28 22:45:36:4536,-0.295822,-0.375137,0.191864,1.174042,-1.866379,19.274734
2019-01-28 22:45:36:4536,-0.295822,-0.375137,0.191864,0.872559,-2.135574,19.887299
2019-01-28 22:45:36:4536,-0.295822,-0.375137,0.191864,-0.523666,0.497742,16.913010
2019-01-28 22:45:36:4536,-0.295822,-0.375137,0.191864,-2.288376,3.249481,11.194168
2019-01-28 22:45:36:4536,-0.295822,-0.375137,0.191864,-2.414001,4.200623,4.885498
2019-01-28 22:45:36:4536,-0.295822,-0.375137,0.191864,-1.248688,3.467224,2.282104
2019-01-28 22:45:36:4536,-0.295822,-0.375137,0.191864,1.208740,1.695343,3.929550
2019-01-28 22:45:36:4536,-0.295822,-0.375137,0.191864,2.520004,-0.238068,5.870148
2019-01-28 22:45:36:4536,-0.295822,-0.375137,0.191864,1.951721,-1.536179,6.224274
2019-01-28 22:45:36:4536,-0.295822,-0.375137,0.191864,1.367874,-2.143951,6.124969
2019-01-28 22:45:36:4536,-0.295822,-0.375137,0.191864,1.433670,-2.020721,5.222885
2019-01-28 22:45:36:4536,-0.295822,-0.375137,0.191864,2.168274,-1.722809,3.258377
2019-01-28 22:45:36:4536,-0.295822,-0.375137,0.191864,2.278336,-1.697693,2.658966
2019-01-28 22:45:36:4536,-0.295822,-0.375137,0.191864,2.180237,-1.996796,5.280304
2019-01-28 22:45:36:4536,0.398788,0.238831,0.299622,2.180237,-1.996796,5.280304
2019-01-28 22:45:36:4536,0.398788,0.238831,0.299622,0.767273,-1.569672,12.897858
2019-01-28 22:45:36:4536,0.398788,0.238831,0.299622,-0.414780,-0.263184,14.474731
2019-01-28 22:45:36:4536,0.398788,0.238831,0.299622,-0.884979,1.362747,13.597763
2019-01-28 22:45:36:4536,0.398788,0.238831,0.299622,-1.046494,2.802017,12.601151
2019-01-28 22:45:36:4536,0.398788,0.238831,0.299622,-0.950775,3.653870,13.035446
2019-01-28 22:45:36:4536,0.398788,0.238831,0.299622,-0.880188,3.239914,13.439835
2019-01-28 22:45:36:4536,0.398788,0.238831,0.299622,0.011139,0.849472,12.829666
2019-01-28 22:45:36:4536,0.398788,0.238831,0.299622,1.547333,-1.275360,11.261169
2019-01-28 22:45:36:4536,0.398788,0.238831,0.299622,2.086914,-1.909454,9.234451
2019-01-28 22:45:36:4536,0.398788,0.238831,0.299622,1.748337,-1.173660,6.339127
2019-01-28 22:45:36:4536,0.275208,-0.116440,-0.150894,1.748337,-1.173660,6.339127
2019-01-28 22:45:36:4536,0.275208,-0.116440,-0.150894,0.056610,0.224945,3.177017
2019-01-28 22:45:36:4536,0.275208,-0.116440,-0.150894,-1.065628,0.568314,1.327362
2019-01-28 22:45:36:4536,0.275208,-0.116440,-0.150894,-0.335831,1.276596,0.211121
2019-01-28 22:45:36:4536,0.275208,-0.116440,-0.150894,-0.108505,3.688568,-0.058090
2019-01-28 22:45:36:4536,0.275208,-0.116440,-0.150894,-2.924866,8.831940,0.375015
2019-01-28 22:45:36:4536,0.275208,-0.116440,-0.150894,-6.180298,10.542801,4.408127
2019-01-28 22:45:36:4536,0.275208,-0.116440,-0.150894,-2.739410,2.366531,19.100052
2019-01-28 22:45:36:4536,0.275208,-0.116440,-0.150894,5.534973,-8.426300,36.085510
2019-01-28 22:45:36:4536,0.275208,-0.116440,-0.150894,11.275360,-10.813141,33.972641
2019-01-28 22:45:36:4536,0.275208,-0.116440,-0.150894,8.540359,-4.770081,27.057388
2019-01-28 22:45:36:4536,-0.970947,-0.153351,0.226746,8.540359,-4.770081,27.057388
2019-01-28 22:45:36:4536,-0.970947,-0.153351,0.226746,-0.867035,3.035324,22.790985
2019-01-28 22:45:36:4536,-0.970947,-0.153351,0.226746,-6.660065,6.082581,15.510818
2019-01-28 22:45:37:4537,-0.970947,-0.153351,0.226746,-6.785690,3.297333,4.611511
2019-01-28 22:45:37:4537,-0.970947,-0.153351,0.226746,-1.984482,0.165131,-4.873642
2019-01-28 22:45:37:4537,-0.970947,-0.153351,0.226746,2.352509,-1.217926,-8.130280
2019-01-28 22:45:37:4537,-0.970947,-0.153351,0.226746,4.312241,-1.533783,-7.682816
2019-01-28 22:45:37:4537,-0.970947,-0.153351,0.226746,3.705658,-1.684525,-3.463074
2019-01-28 22:45:37:4537,-0.970947,-0.153351,0.226746,2.689911,-1.680939,3.461761
2019-01-28 22:45:37:4537,-0.970947,-0.153351,0.226746,1.900269,-0.643646,8.922180
2019-01-28 22:45:37:4537,-0.970947,-0.153351,0.226746,-0.067825,1.173706,9.991776
2019-01-28 22:45:37:4537,1.113190,0.104019,-0.433472,-0.067825,1.173706,9.991776
2019-01-28 22:45:37:4537,1.113190,0.104019,-0.433472,-1.443710,3.018570,7.590576
2019-01-28 22:45:37:4537,1.113190,0.104019,-0.433472,-1.462845,4.036728,3.841019
2019-01-28 22:45:37:4537,1.113190,0.104019,-0.433472,0.373657,3.919464,1.887283
2019-01-28 22:45:37:4537,1.113190,0.104019,-0.433472,-0.487778,2.078186,6.755478
2019-01-28 22:45:37:4537,1.113190,0.104019,-0.433472,-0.220963,-0.212936,19.336945
2019-01-28 22:45:37:4537,1.113190,0.104019,-0.433472,1.979233,-0.525208,24.547318
2019-01-28 22:45:37:4537,1.113190,0.104019,-0.433472,1.353516,2.282776,16.573227
2019-01-28 22:45:37:4537,1.113190,0.104019,-0.433472,-0.978302,5.546585,9.433044
2019-01-28 22:45:37:4537,1.113190,0.104019,-0.433472,-2.510910,6.323059,9.742920
2019-01-28 22:45:37:4537,1.113190,0.104019,-0.433472,-1.883987,4.871811,14.952103
2019-01-28 22:45:37:4537,-0.225998,0.229172,-0.320221,-1.883987,4.871811,14.952103
2019-01-28 22:45:37:4537,-0.225998,0.229172,-0.320221,0.127197,1.409393,17.175034
2019-01-28 22:45:37:4537,-0.225998,0.229172,-0.320221,1.464783,-0.525208,13.939926
2019-01-28 22:45:37:4537,-0.225998,0.229172,-0.320221,2.040253,-0.155518,7.959076
2019-01-28 22:45:37:4537,-0.225998,0.229172,-0.320221,1.329575,1.594849,1.633652
2019-01-28 22:45:37:4537,-0.225998,0.229172,-0.320221,-0.180298,2.063828,0.296051
2019-01-28 22:45:37:4537,-0.225998,0.229172,-0.320221,-0.399246,0.358948,6.974426
2019-01-28 22:45:37:4537,-0.225998,0.229172,-0.320221,0.892899,-0.613739,15.488098
2019-01-28 22:45:37:4537,-0.225998,0.229172,-0.320221,2.157501,0.162735,17.736145
2019-01-28 22:45:37:4537,-0.225998,0.229172,-0.320221,1.241043,1.368713,13.406326
2019-01-28 22:45:37:4537,-0.225998,0.229172,-0.320221,-0.482986,2.445496,8.875534
2019-01-28 22:45:37:4537,-0.131012,0.023071,-0.064941,-0.482986,2.445496,8.875534
2019-01-28 22:45:37:4537,-0.131012,0.023071,-0.064941,-0.620575,2.239716,6.876312
2019-01-28 22:45:37:4537,-0.131012,0.023071,-0.064941,0.763687,0.996643,7.098846
2019-01-28 22:45:37:4537,-0.131012,0.023071,-0.064941,1.085526,0.477402,8.422089
2019-01-28 22:45:37:4537,-0.131012,0.023071,-0.064941,-0.010406,1.280182,8.258179
2019-01-28 22:45:37:4537,-0.131012,0.023071,-0.064941,-1.057266,3.013779,4.617493
2019-01-28 22:45:37:4537,-0.131012,0.023071,-0.064941,-1.758362,5.782272,1.098846
2019-01-28 22:45:37:4537,-0.131012,0.023071,-0.064941,-1.962952,4.914886,4.636642
2019-01-28 22:45:37:4537,-0.131012,0.023071,-0.064941,0.500473,1.533829,14.833649
2019-01-28 22:45:37:4537,-0.131012,0.023071,-0.064941,3.070358,-0.705856,22.365067
2019-01-28 22:45:37:4537,-0.131012,0.023071,-0.064941,4.655609,-0.802780,20.443619
2019-01-28 22:45:37:4537,-0.252396,-0.123520,0.079407,4.655609,-0.802780,20.443619
2019-01-28 22:45:37:4537,-0.252396,-0.123520,0.079407,3.161285,0.705917,13.726974
2019-01-28 22:45:37:4537,-0.252396,-0.123520,0.079407,0.316223,2.623749,9.236832
2019-01-28 22:45:37:4537,-0.252396,-0.123520,0.079407,-0.762939,3.245895,7.853790
2019-01-28 22:45:37:4537,-0.252396,-0.123520,0.079407,0.426300,1.959747,7.674332
2019-01-28 22:45:37:4537,-0.252396,-0.123520,0.079407,1.273346,0.776489,7.376419
2019-01-28 22:45:37:4537,-0.252396,-0.123520,0.079407,1.318817,0.373306,6.109421
2019-01-28 22:45:37:4537,-0.252396,-0.123520,0.079407,1.318817,0.373306,6.109421
2019-01-28 22:45:37:4537,-0.252396,-0.123520,0.079407,7.162094,-8.475357,32.325180
2019-01-28 22:45:37:4537,-0.252396,-0.123520,0.079407,2.807144,-4.326202,10.170044
2019-01-28 22:45:37:4537,-0.252396,-0.123520,0.079407,-0.329834,-0.533585,4.353088
2019-01-28 22:45:37:4537,-0.252396,-0.123520,0.079407,-0.538010,0.648483,6.217102
2019-01-28 22:45:37:4537,-0.252396,-0.123520,0.079407,-0.167130,1.548172,6.090271
2019-01-28 22:45:37:4537,-0.252396,-0.123520,0.079407,0.718216,2.103317,5.769638
2019-01-28 22:45:37:4537,-0.252396,-0.123520,0.079407,1.699280,0.528839,5.293457
2019-01-28 22:45:37:4537,0.829636,0.093201,-0.454239,1.699280,0.528839,5.293457
2019-01-28 22:45:37:4537,0.829636,0.093201,-0.454239,0.696686,0.701126,6.190765
2019-01-28 22:45:37:4537,0.829636,0.093201,-0.454239,-0.523666,0.756149,6.944519
2019-01-28 22:45:37:4537,0.829636,0.093201,-0.454239,-0.083374,-0.069366,5.858170
2019-01-28 22:45:37:4537,0.829636,0.093201,-0.454239,0.043442,-1.074356,1.792770
2019-01-28 22:45:37:4537,0.829636,0.093201,-0.454239,-0.138412,-1.323212,0.759064
2019-01-28 22:45:37:4537,0.829636,0.093201,-0.454239,-0.138412,-1.323212,0.759064
2019-01-28 22:45:37:4537,0.829636,0.093201,-0.454239,-0.653473,-0.648438,7.896255
2019-01-28 22:45:37:4537,0.829636,0.093201,-0.454239,-0.220963,-1.064789,16.829269
2019-01-28 22:45:37:4537,0.829636,0.093201,-0.454239,0.779236,-1.728790,21.989395
2019-01-28 22:45:37:4537,0.829636,0.093201,-0.454239,1.507843,-1.375854,20.154099
2019-01-28 22:45:37:4537,0.829636,0.093201,-0.454239,0.846237,-0.392395,14.388580
2019-01-28 22:45:37:4537,0.829636,0.093201,-0.454239,0.264786,-1.201187,12.936142
2019-01-28 22:45:37:4537,0.829636,0.093201,-0.454239,0.695496,-2.118835,16.240631
2019-01-28 22:45:37:4537,0.829636,0.093201,-0.454239,0.421509,-0.833878,18.531754
2019-01-28 22:45:37:4537,-1.539780,-0.195496,-0.343277,0.421509,-0.833878,18.531754
2019-01-28 22:45:37:4537,-1.539780,-0.195496,-0.343277,-0.337021,1.148575,16.320801
2019-01-28 22:45:37:4537,-1.539780,-0.195496,-0.343277,-1.395844,0.957153,12.069946
2019-01-28 22:45:37:4537,-1.539780,-0.195496,-0.343277,-1.036926,-0.534775,10.324371
2019-01-28 22:45:37:4537,-1.539780,-0.195496,-0.343277,1.241043,-2.085327,11.057770
2019-01-28 22:45:37:4537,-1.539780,-0.195496,-0.343277,2.330978,-2.888123,10.453583
2019-01-28 22:45:37:4537,-1.539780,-0.195496,-0.343277,1.322403,-2.528000,7.560669
2019-01-28 22:45:37:4537,-1.539780,-0.195496,-0.343277,0.562683,-3.519821,8.672134
2019-01-28 22:45:37:4537,-1.539780,-0.195496,-0.343277,2.688705,-4.610947,10.250198
2019-01-28 22:45:37:4537,-1.539780,-0.195496,-0.343277,1.087906,-1.853226,7.102448
2019-01-28 22:45:37:4537,-1.539780,-0.195496,-0.343277,-0.082184,-0.757309,8.712814
2019-01-28 22:45:37:4537,0.779221,-0.059326,-0.428589,-0.082184,-0.757309,8.712814
2019-01-28 22:45:37:4537,0.779221,-0.059326,-0.428589,-0.467438,-0.770477,9.495270
2019-01-28 22:45:38:4538,0.779221,-0.059326,-0.428589,-0.587082,-0.592209,8.538132
2019-01-28 22:45:38:4538,0.779221,-0.059326,-0.428589,-0.339417,-0.166275,7.171829
2019-01-28 22:45:38:4538,0.779221,-0.059326,-0.428589,-0.459061,0.725052,7.368042
2019-01-28 22:45:38:4538,0.779221,-0.059326,-0.428589,-0.000839,1.127045,8.456772
2019-01-28 22:45:38:4538,0.779221,-0.059326,-0.428589,-0.225754,0.674805,10.134155
2019-01-28 22:45:38:4538,0.779221,-0.059326,-0.428589,-0.693558,0.086166,11.246811
2019-01-28 22:45:38:4538,0.779221,-0.059326,-0.428589,-0.652878,-0.445038,10.088684
2019-01-28 22:45:38:4538,0.779221,-0.059326,-0.428589,-0.027145,-0.364883,7.320190
2019-01-28 22:45:38:4538,0.779221,-0.059326,-0.428589,0.629684,0.128036,5.847412
2019-01-28 22:45:38:4538,-0.054474,-0.270020,0.127289,0.629684,0.128036,5.847412
2019-01-28 22:45:38:4538,-0.054474,-0.270020,0.127289,0.883331,0.776505,7.334549
2019-01-28 22:45:38:4538,-0.054474,-0.270020,0.127289,0.002762,0.951172,10.539734
2019-01-28 22:45:38:4538,-0.054474,-0.270020,0.127289,0.358093,0.074203,14.241425
2019-01-28 22:45:38:4538,-0.054474,-0.270020,0.127289,2.037857,-0.973862,14.989182
2019-01-28 22:45:38:4538,-0.054474,-0.270020,0.127289,3.002167,-1.077942,13.859772
2019-01-28 22:45:38:4538,-0.054474,-0.270020,0.127289,2.650421,-0.562286,13.067749
2019-01-28 22:45:38:4538,-0.054474,-0.270020,0.127289,1.830887,-0.120819,14.571640
2019-01-28 22:45:38:4538,-0.054474,-0.270020,0.127289,0.836670,-0.192596,15.830261
2019-01-28 22:45:38:4538,-0.054474,-0.270020,0.127289,0.242050,-1.258606,15.233246
2019-01-28 22:45:38:4538,-0.054474,-0.270020,0.127289,0.279129,-2.075760,13.856186
2019-01-28 22:45:38:4538,-0.092590,-0.215836,0.344025,0.279129,-2.075760,13.856186
2019-01-28 22:45:38:4538,-0.092590,-0.215836,0.344025,0.931183,-1.501480,11.793579
2019-01-28 22:45:38:4538,-0.092590,-0.215836,0.344025,1.483917,-0.148331,8.023682
2019-01-28 22:45:38:4538,-0.092590,-0.215836,0.344025,1.041260,0.759750,3.965454
2019-01-28 22:45:38:4538,-0.092590,-0.215836,0.344025,-0.468628,0.811188,2.521378
2019-01-28 22:45:38:4538,-0.092590,-0.215836,0.344025,-1.848083,-0.098083,3.991776
2019-01-28 22:45:39:4539,-0.092590,-0.215836,0.344025,-1.578903,-2.059006,7.115601
2019-01-28 22:45:39:4539,-0.092590,-0.215836,0.344025,1.480331,-4.189819,8.658966
2019-01-28 22:45:39:4539,-0.092590,-0.215836,0.344025,1.443253,-2.557907,4.930954
2019-01-28 22:45:39:4539,-0.092590,-0.215836,0.344025,-0.455475,-0.204575,5.701447
2019-01-28 22:45:39:4539,-0.092590,-0.215836,0.344025,-1.160156,0.817169,7.997360
2019-01-28 22:45:39:4539,0.909760,0.271439,-0.211243,-1.160156,0.817169,7.997360
2019-01-28 22:45:39:4539,0.909760,0.271439,-0.211243,-0.430344,0.774109,7.936340
2019-01-28 22:45:39:4539,0.909760,0.271439,-0.211243,0.270767,0.512085,6.927765
2019-01-28 22:45:39:4539,0.909760,0.271439,-0.211243,1.275742,0.163925,6.075928
2019-01-28 22:45:39:4539,0.909760,0.271439,-0.211243,0.994583,0.288361,6.666946
2019-01-28 22:45:39:4539,0.909760,0.271439,-0.211243,0.102066,0.541992,7.975830
2019-01-28 22:45:39:4539,0.909760,0.271439,-0.211243,-0.619370,0.516876,9.123184
2019-01-28 22:45:39:4539,0.909760,0.271439,-0.211243,-0.490173,0.385269,9.801544
2019-01-28 22:45:39:4539,0.909760,0.271439,-0.211243,0.093689,0.193848,10.063568
2019-01-28 22:45:39:4539,0.909760,0.271439,-0.211243,0.311447,0.142410,10.598358
2019-01-28 22:45:39:4539,0.909760,0.271439,-0.211243,0.996979,-0.094498,12.459976
2019-01-28 22:45:39:4539,-0.647003,-0.069412,0.458069,0.996979,-0.094498,12.459976
2019-01-28 22:45:39:4539,-0.647003,-0.069412,0.458069,0.969467,-0.061005,13.169434
2019-01-28 22:45:39:4539,-0.647003,-0.069412,0.458069,0.385620,-0.340958,12.888290
2019-01-28 22:45:39:4539,-0.647003,-0.069412,0.458069,0.709839,-0.658005,12.769836
2019-01-28 22:45:39:4539,-0.647003,-0.069412,0.458069,0.719421,-0.259598,12.497070
2019-01-28 22:45:39:4539,-0.647003,-0.069412,0.458069,0.372452,0.049088,11.992172
2019-01-28 22:45:39:4539,-0.647003,-0.069412,0.458069,0.035065,0.439102,11.253998
2019-01-28 22:45:39:4539,-0.647003,-0.069412,0.458069,-0.147995,0.619766,9.990585
2019-01-28 22:45:39:4539,-0.647003,-0.069412,0.458069,-0.308304,0.799225,9.777618
2019-01-28 22:45:39:4539,-0.647003,-0.069412,0.458069,-0.388474,1.190460,9.476120
2019-01-28 22:45:39:4539,-0.647003,-0.069412,0.458069,-0.137222,1.116287,8.716400
2019-01-28 22:45:39:4539,0.267090,0.019531,0.493317,-0.137222,1.116287,8.716400
2019-01-28 22:45:39:4539,0.267090,0.019531,0.493317,0.005157,0.854263,8.335938
2019-01-28 22:45:39:4539,0.267090,0.019531,0.493317,0.361694,0.576691,8.626678
2019-01-28 22:45:39:4539,0.267090,0.019531,0.493317,0.684723,0.638916,8.475922
2019-01-28 22:45:39:4539,0.267090,0.019531,0.493317,0.577042,0.771713,8.619492
2019-01-28 22:45:39:4539,0.267090,0.019531,0.493317,0.450226,0.713089,9.345718
2019-01-28 22:45:39:4539,0.267090,0.019531,0.493317,0.014725,0.533630,9.641235
2019-01-28 22:45:39:4539,0.267090,0.019531,0.493317,0.008743,0.021561,8.570435
2019-01-28 22:45:39:4539,0.267090,0.019531,0.493317,0.299469,-0.278748,7.766449
2019-01-28 22:45:39:4539,0.267090,0.019531,0.493317,0.538757,-0.264389,7.809525
2019-01-28 22:45:39:4539,0.267090,0.019531,0.493317,0.153519,0.074203,8.108627
2019-01-28 22:45:39:4539,-0.530258,0.045563,0.614700,0.153519,0.074203,8.108627
2019-01-28 22:45:39:4539,-0.530258,0.045563,0.614700,0.134369,0.671219,8.084702
2019-01-28 22:45:39:4539,-0.530258,0.045563,0.614700,0.137955,0.848282,9.332550
2019-01-28 22:45:39:4539,-0.530258,0.045563,0.614700,0.073349,0.309906,11.338928
2019-01-28 22:45:39:4539,-0.530258,0.045563,0.614700,0.492096,-0.537170,13.528366
2019-01-28 22:45:39:4539,-0.530258,0.045563,0.614700,1.448029,-1.033691,13.423080
2019-01-28 22:45:39:4539,-0.530258,0.045563,0.614700,2.073761,-1.048035,11.215714
2019-01-28 22:45:39:4539,-0.530258,0.045563,0.614700,1.810547,-0.730988,9.119598
2019-01-28 22:45:39:4539,-0.530258,0.045563,0.614700,1.378632,-0.568283,8.881500
2019-01-28 22:45:39:4539,-0.530258,0.045563,0.614700,1.022110,-0.429489,9.285889
2019-01-28 22:45:39:4539,-0.530258,0.045563,0.614700,0.559097,-0.287125,9.885300
2019-01-28 22:45:39:4539,-0.019043,0.028214,0.279037,0.559097,-0.287125,9.885300
2019-01-28 22:45:39:4539,-0.019043,0.028214,0.279037,0.255203,-0.046646,11.185791
2019-01-28 22:45:40:4540,-0.019043,0.028214,0.279037,-0.021164,0.191452,11.847412
2019-01-28 22:45:40:4540,-0.019043,0.028214,0.279037,-0.021164,0.191452,11.847412
2019-01-28 22:45:40:4540,-0.019043,0.028214,0.279037,0.758896,-0.332581,12.065155
2019-01-28 22:45:40:4540,-0.019043,0.028214,0.279037,0.864182,-1.064789,12.160873
2019-01-28 22:45:40:4540,-0.019043,0.028214,0.279037,0.517212,-0.543152,11.213303
2019-01-28 22:45:40:4540,-0.254150,0.178970,-0.277328,0.517212,-0.543152,11.213303
2019-01-28 22:45:40:4540,-0.254150,0.178970,-0.277328,-0.351379,0.978683,10.478714
2019-01-28 22:45:40:4540,-0.254150,0.178970,-0.277328,-1.550186,2.718262,8.700851
2019-01-28 22:45:40:4540,-0.254150,0.178970,-0.277328,-1.904312,3.005402,5.831848
2019-01-28 22:45:40:4540,-0.254150,0.178970,-0.277328,-0.069031,1.744385,3.979813
2019-01-28 22:45:40:4540,-0.254150,0.178970,-0.277328,1.481522,0.315872,7.435043
2019-01-28 22:45:40:4540,-0.254150,0.178970,-0.277328,1.938553,-0.555115,8.303635
2019-01-28 22:45:40:4540,-0.254150,0.178970,-0.277328,1.936157,-0.339752,8.394562
2019-01-28 22:45:40:4540,-0.254150,0.178970,-0.277328,1.969666,-1.351929,8.514206
2019-01-28 22:45:40:4540,-0.254150,0.178970,-0.277328,1.479126,-1.490707,8.576416
2019-01-28 22:45:40:4540,-0.254150,0.178970,-0.277328,1.670563,-1.263382,8.863556
2019-01-28 22:45:40:4540,0.345459,0.145981,-0.613800,1.670563,-1.263382,8.863556
2019-01-28 22:45:40:4540,0.345459,0.145981,-0.613800,1.153702,-0.287109,7.490082
2019-01-28 22:45:40:4540,0.345459,0.145981,-0.613800,0.316223,0.780075,6.791367
2019-01-28 22:45:40:4540,0.345459,0.145981,-0.613800,-0.090561,0.244095,7.786789
2019-01-28 22:45:40:4540,0.345459,0.145981,-0.613800,0.323395,-0.969070,11.316193
2019-01-28 22:45:40:4540,0.345459,0.145981,-0.613800,1.400177,-1.734772,14.307236
2019-01-28 22:45:40:4540,0.345459,0.145981,-0.613800,1.173462,-1.323807,13.386597
2019-01-28 22:45:40:4540,0.345459,0.145981,-0.613800,0.178635,0.409195,9.988190
2019-01-28 22:45:40:4540,0.345459,0.145981,-0.613800,-0.808411,1.755157,9.283493
2019-01-28 22:45:40:4540,0.345459,0.145981,-0.613800,-0.305923,2.074600,10.643814
2019-01-28 22:45:40:4540,0.345459,0.145981,-0.613800,-0.104919,2.671616,11.259979
2019-01-28 22:45:40:4540,0.345459,0.145981,-0.613800,-0.811996,3.761551,10.649811
2019-01-28 22:45:40:4540,0.345459,0.145981,-0.613800,-0.358566,3.491150,9.753693
2019-01-28 22:45:40:4540,0.345459,0.145981,-0.613800,0.073349,2.847488,11.200150
2019-01-28 22:45:40:4540,0.345459,0.145981,-0.613800,-0.569122,3.468430,12.946915
2019-01-28 22:45:40:4540,0.671097,0.020386,-0.930710,-0.569122,3.468430,12.946915
2019-01-28 22:45:40:4540,0.671097,0.020386,-0.930710,-1.276215,4.009201,11.884506
2019-01-28 22:45:40:4540,0.671097,0.020386,-0.930710,-1.203232,3.407410,10.645020
2019-01-28 22:45:40:4540,0.671097,0.020386,-0.930710,-0.786865,2.725449,10.377029
2019-01-28 22:45:40:4540,0.671097,0.020386,-0.930710,-0.559555,3.223160,10.932159
2019-01-28 22:45:40:4540,0.671097,0.020386,-0.930710,-0.462646,4.084579,11.304230
2019-01-28 22:45:40:4540,0.671097,0.020386,-0.930710,-0.454269,3.610794,11.910828
2019-01-28 22:45:40:4540,0.671097,0.020386,-0.930710,-0.203033,1.746780,12.799759
2019-01-28 22:45:40:4540,0.671097,0.020386,-0.930710,1.217133,0.125656,14.312012
2019-01-28 22:45:40:4540,0.671097,0.020386,-0.930710,3.268967,-0.574249,13.993774
2019-01-28 22:45:40:4540,0.671097,0.020386,-0.930710,3.005753,-0.226105,10.911819
2019-01-28 22:45:40:4540,-0.502533,-0.577087,0.399429,3.005753,-0.226105,10.911819
2019-01-28 22:45:40:4540,-0.502533,-0.577087,0.399429,1.638260,0.806396,7.942322
2019-01-28 22:45:40:4540,-0.502533,-0.577087,0.399429,0.024307,2.031540,5.508820
2019-01-28 22:45:40:4540,-0.502533,-0.577087,0.399429,-0.817978,2.426346,3.604141
2019-01-28 22:45:40:4540,-0.502533,-0.577087,0.399429,-0.479401,1.427353,4.404541
2019-01-28 22:45:40:4540,-0.502533,-0.577087,0.399429,0.492096,0.160339,6.386993
2019-01-28 22:45:40:4540,-0.502533,-0.577087,0.399429,1.010147,-0.424713,7.011520
2019-01-28 22:45:40:4540,-0.502533,-0.577087,0.399429,1.261383,-0.393600,6.108215
2019-01-28 22:45:40:4540,-0.502533,-0.577087,0.399429,1.352310,0.226151,3.971436
2019-01-28 22:45:40:4540,-0.502533,-0.577087,0.399429,0.830688,2.301926,3.039429
2019-01-28 22:45:40:4540,0.298660,0.315674,-0.036530,0.830688,2.301926,3.039429
2019-01-28 22:45:40:4540,0.298660,0.315674,-0.036530,-1.216385,5.132629,4.333939
2019-01-28 22:45:40:4540,0.298660,0.315674,-0.036530,-2.536026,6.211792,9.570633
2019-01-28 22:45:40:4540,0.298660,0.315674,-0.036530,-1.302536,2.981476,16.073135
2019-01-28 22:45:40:4540,0.298660,0.315674,-0.036530,2.559494,-2.784027,19.778427
2019-01-28 22:45:40:4540,0.298660,0.315674,-0.036530,5.940552,-5.856415,19.710220
2019-01-28 22:45:40:4540,0.298660,0.315674,-0.036530,5.290894,-4.207764,15.188980
2019-01-28 22:45:40:4540,0.298660,0.315674,-0.036530,1.494690,-0.253616,9.032257
2019-01-28 22:45:40:4540,0.298660,0.315674,-0.036530,-2.364944,3.235123,5.055374
2019-01-28 22:45:40:4540,0.298660,0.315674,-0.036530,-3.489578,3.791458,5.880905
2019-01-28 22:45:40:4540,0.298660,0.315674,-0.036530,-1.285782,2.456253,8.431656
2019-01-28 22:45:40:4540,-0.184341,-0.459503,0.292282,-1.285782,2.456253,8.431656
2019-01-28 22:45:40:4540,-0.184341,-0.459503,0.292282,0.165482,1.395050,9.825470
2019-01-28 22:45:40:4540,-0.184341,-0.459503,0.292282,1.443237,0.865036,10.350708
2019-01-28 22:45:40:4540,-0.184341,-0.459503,0.292282,1.194382,1.011002,8.191177
2019-01-28 22:45:40:4540,-0.184341,-0.459503,0.292282,0.648834,1.241898,6.306839
2019-01-28 22:45:40:4540,-0.184341,-0.459503,0.292282,0.496887,1.411789,7.054581
2019-01-28 22:45:41:4541,-0.184341,-0.459503,0.292282,0.624908,1.464432,8.749908
2019-01-28 22:45:41:4541,-0.184341,-0.459503,0.292282,0.428696,1.278992,9.053787
2019-01-28 22:45:41:4541,-0.184341,-0.459503,0.292282,0.267166,0.253662,9.698654
2019-01-28 22:45:41:4541,-0.184341,-0.459503,0.292282,1.613129,-0.771667,11.062561
2019-01-28 22:45:41:4541,0.008881,0.036575,0.317322,1.613129,-0.771667,11.062561
2019-01-28 22:45:41:4541,0.008881,0.036575,0.317322,2.600174,-0.826706,11.845016
2019-01-28 22:45:41:4541,0.008881,0.036575,0.317322,2.289108,-0.161499,11.493271
2019-01-28 22:45:41:4541,0.008881,0.036575,0.317322,1.543747,0.491745,11.276718
2019-01-28 22:45:41:4541,0.008881,0.036575,0.317322,1.370270,1.099533,11.340134
2019-01-28 22:45:41:4541,0.008881,0.036575,0.317322,1.254211,1.749176,10.140137
2019-01-28 22:45:41:4541,0.008881,0.036575,0.317322,1.043640,2.073410,8.412506
2019-01-28 22:45:41:4541,0.008881,0.036575,0.317322,0.828293,1.473999,6.957672
2019-01-28 22:45:41:4541,0.008881,0.036575,0.317322,0.757706,0.356567,5.633255
2019-01-28 22:45:41:4541,0.008881,0.036575,0.317322,0.256409,-0.355316,6.885895
2019-01-28 22:45:41:4541,0.815872,0.454147,-0.154861,0.256409,-0.355316,6.885895
2019-01-28 22:45:41:4541,0.815872,0.454147,-0.154861,-0.424362,-0.034683,8.248611
2019-01-28 22:45:42:4542,0.815872,0.454147,-0.154861,-0.877792,0.841110,7.676712
2019-01-28 22:45:42:4542,0.815872,0.454147,-0.154861,-0.880188,2.947983,5.608124
2019-01-28 22:45:42:4542,0.815872,0.454147,-0.154861,-0.465042,7.009796,2.962860
2019-01-28 22:45:42:4542,0.815872,0.454147,-0.154861,0.910843,6.094543,3.902039
2019-01-28 22:45:42:4542,0.815872,0.454147,-0.154861,2.348923,-2.009949,23.050613
2019-01-28 22:45:42:4542,0.815872,0.454147,-0.154861,2.263992,-4.304672,33.416321
2019-01-28 22:45:42:4542,0.815872,0.454147,-0.154861,1.644241,-0.451019,19.656387
2019-01-28 22:45:42:4542,0.815872,0.454147,-0.154861,-1.587280,2.909698,13.663559
2019-01-28 22:45:42:4542,0.815872,0.454147,-0.154861,-4.805618,4.987869,8.855179
2019-01-28 22:45:42:4542,-0.232422,0.273163,0.195221,-4.805618,4.987869,8.855179
2019-01-28 22:45:42:4542,-0.232422,0.273163,0.195221,-4.739822,4.590652,7.259171
2019-01-28 22:45:42:4542,-0.232422,0.273163,0.195221,-1.662643,2.604614,6.927765
2019-01-28 22:45:42:4542,-0.232422,0.273163,0.195221,1.469559,0.750183,4.793365
2019-01-28 22:45:42:4542,-0.232422,0.273163,0.195221,2.892105,-0.453415,3.252396
2019-01-28 22:45:42:4542,-0.232422,0.273163,0.195221,2.449417,-0.662796,2.880310
2019-01-28 22:45:42:4542,-0.232422,0.273163,0.195221,0.690704,0.416382,4.174820
2019-01-28 22:45:42:4542,-0.232422,0.273163,0.195221,-1.304916,1.460846,6.814102
2019-01-28 22:45:42:4542,-0.232422,0.273163,0.195221,-0.850281,1.226349,9.821884
2019-01-28 22:45:42:4542,-0.232422,0.273163,0.195221,0.828293,0.886566,13.510422
2019-01-28 22:45:42:4542,-0.232422,0.273163,0.195221,1.200378,1.100723,12.835648
2019-01-28 22:45:42:4542,-0.232422,0.273163,0.195221,0.389206,-0.270370,9.799149
2019-01-28 22:45:42:4542,-0.232422,0.273163,0.195221,1.097488,-0.352921,6.631058
2019-01-28 22:45:42:4542,-0.659348,-0.021942,-0.055359,1.097488,-0.352921,6.631058
2019-01-28 22:45:42:4542,-0.659348,-0.021942,-0.055359,0.382034,0.833923,7.070145
2019-01-28 22:45:42:4542,-0.659348,-0.021942,-0.055359,-0.170731,1.485962,7.060562
2019-01-28 22:45:42:4542,-0.659348,-0.021942,-0.055359,-1.125458,1.277786,8.447220
2019-01-28 22:45:42:4542,-0.659348,-0.021942,-0.055359,-0.596649,0.440308,11.699051
2019-01-28 22:45:42:4542,-0.659348,-0.021942,-0.055359,-0.298737,-0.016724,12.378616
2019-01-28 22:45:42:4542,-0.659348,-0.021942,-0.055359,-0.595444,0.562347,10.495468
2019-01-28 22:45:42:4542,-0.659348,-0.021942,-0.055359,-0.326248,0.702316,9.491669
2019-01-28 22:45:42:4542,-0.659348,-0.021942,-0.055359,-0.421967,0.327835,9.112411
2019-01-28 22:45:42:4542,-0.659348,-0.021942,-0.055359,-0.857468,0.629333,7.881302
2019-01-28 22:45:42:4542,-0.659348,-0.021942,-0.055359,0.084122,2.116486,5.734940
2019-01-28 22:45:42:4542,0.236603,0.074020,-0.141418,0.084122,2.116486,5.734940
2019-01-28 22:45:42:4542,0.236603,0.074020,-0.141418,2.114426,2.943192,6.303238
2019-01-28 22:45:42:4542,0.236603,0.074020,-0.141418,-0.819183,1.499130,11.307831
2019-01-28 22:45:42:4542,0.236603,0.074020,-0.141418,-1.513092,-0.614929,15.818298
2019-01-28 22:45:42:4542,0.236603,0.074020,-0.141418,-0.441116,-1.209549,17.320984
2019-01-28 22:45:42:4542,0.236603,0.074020,-0.141418,0.640442,-0.726212,14.621887
2019-01-28 22:45:42:4542,0.236603,0.074020,-0.141418,0.262390,0.617371,12.385788
2019-01-28 22:45:42:4542,0.236603,0.074020,-0.141418,-0.749786,2.106903,10.262161
2019-01-28 22:45:42:4542,0.236603,0.074020,-0.141418,-1.811005,3.169327,9.503647
2019-01-28 22:45:42:4542,0.236603,0.074020,-0.141418,-2.276413,2.860641,8.965256
2019-01-28 22:45:42:4542,0.236603,0.074020,-0.141418,-0.855072,1.314880,8.075119
2019-01-28 22:45:42:4542,-0.126678,-0.205933,0.126923,-0.855072,1.314880,8.075119
2019-01-28 22:45:42:4542,-0.126678,-0.205933,0.126923,0.791199,-0.208160,7.687485
2019-01-28 22:45:42:4542,-0.126678,-0.205933,0.126923,1.756714,-0.784821,6.645416
2019-01-28 22:45:42:4542,-0.126678,-0.205933,0.126923,1.908646,-0.259598,5.548309
2019-01-28 22:45:42:4542,-0.126678,-0.205933,0.126923,1.077148,-0.078934,5.681107
2019-01-28 22:45:42:4542,-0.126678,-0.205933,0.126923,-0.142014,-0.734589,7.152695
2019-01-28 22:45:42:4542,-0.126678,-0.205933,0.126923,-0.753372,-0.355316,9.644821
2019-01-28 22:45:42:4542,-0.126678,-0.205933,0.126923,-0.893356,1.112686,10.479904
2019-01-28 22:45:42:4542,-0.126678,-0.205933,0.126923,-0.864639,2.281586,8.327560
2019-01-28 22:45:42:4542,-0.126678,-0.205933,0.126923,-1.748779,1.209595,7.231659
2019-01-28 22:45:42:4542,-0.126678,-0.205933,0.126923,-1.528656,-0.937958,9.785995
2019-01-28 22:45:42:4542,-0.349945,0.021545,0.117096,-1.528656,-0.937958,9.785995
2019-01-28 22:45:42:4542,-0.349945,0.021545,0.117096,0.560287,-2.842651,15.945114
2019-01-28 22:45:42:4542,-0.349945,0.021545,0.117096,1.586823,-3.038864,17.520798
2019-01-28 22:45:42:4542,-0.349945,0.021545,0.117096,1.115433,-2.109253,11.979019
2019-01-28 22:45:42:4542,-0.349945,0.021545,0.117096,-0.128845,-0.945145,9.476120
2019-01-28 22:45:42:4542,-0.349945,0.021545,0.117096,-1.178101,0.131638,9.154297
2019-01-28 22:45:42:4542,-0.349945,0.021545,0.117096,-1.523865,0.248871,9.532349
2019-01-28 22:45:42:4542,-0.349945,0.021545,0.117096,0.001572,-0.360107,9.960663
2019-01-28 22:45:42:4542,-0.349945,0.021545,0.117096,0.764877,-0.699875,8.964066
2019-01-28 22:45:42:4542,-0.349945,0.021545,0.117096,1.072357,-0.299088,7.600159
2019-01-28 22:45:42:4542,-0.349945,0.021545,0.117096,0.731369,0.149582,8.235443
2019-01-28 22:45:42:4542,0.519669,-0.157562,-0.175690,0.731369,0.149582,8.235443
2019-01-28 22:45:42:4542,0.519669,-0.157562,-0.175690,0.499283,0.241699,9.192581
2019-01-28 22:45:42:4542,0.519669,-0.157562,-0.175690,0.100876,0.524048,9.595764
2019-01-28 22:45:42:4542,0.519669,-0.157562,-0.175690,0.135574,0.775299,10.062363
2019-01-28 22:45:42:4542,0.519669,-0.157562,-0.175690,0.082916,1.027740,9.835052
2019-01-28 22:45:42:4542,0.519669,-0.157562,-0.175690,-0.005615,0.820770,9.169830
2019-01-28 22:45:42:4542,0.519669,-0.157562,-0.175690,0.176254,0.759750,8.763062
2019-01-28 22:45:42:4542,0.519669,-0.157562,-0.175690,0.115219,0.515686,9.675919
2019-01-28 22:45:42:4542,0.519669,-0.157562,-0.175690,0.599777,0.521652,10.105438
2019-01-28 22:45:42:4542,0.519669,-0.157562,-0.175690,0.912033,0.725052,9.825470
2019-01-28 22:45:42:4542,0.519669,-0.157562,-0.175690,0.177444,0.625748,10.481110
2019-01-28 22:45:42:4542,-0.050629,0.147568,-0.077209,0.177444,0.625748,10.481110
2019-01-28 22:45:42:4542,-0.050629,0.147568,-0.077209,-0.113297,0.345795,9.430664
2019-01-28 22:45:42:4542,-0.050629,0.147568,-0.077209,-0.163544,-0.023911,9.638840
2019-01-28 22:45:42:4542,-0.050629,0.147568,-0.077209,0.043442,0.083786,9.506042
2019-01-28 22:45:42:4542,-0.050629,0.147568,-0.077209,0.238464,0.982285,9.372040
2019-01-28 22:45:42:4542,-0.050629,0.147568,-0.077209,-0.967529,1.532623,8.813309
2019-01-28 22:45:42:4542,-0.050629,0.147568,-0.077209,-1.547791,-0.185425,9.417496
2019-01-28 22:45:42:4542,-0.050629,0.147568,-0.077209,-0.142014,0.556366,12.038834
2019-01-28 22:45:42:4542,-0.050629,0.147568,-0.077209,1.509048,0.384079,11.377228
2019-01-28 22:45:42:4542,-0.050629,0.147568,-0.077209,2.279526,-0.495300,9.842224
2019-01-28 22:45:42:4542,-0.050629,0.147568,-0.077209,2.529587,-1.252625,10.074326
2019-01-28 22:45:42:4542,-0.050201,-0.137451,0.031631,2.529587,-1.252625,10.074326
2019-01-28 22:45:42:4542,-0.050201,-0.137451,0.031631,2.094086,-0.784836,10.911819
2019-01-28 22:45:42:4542,-0.050201,-0.137451,0.031631,0.455017,-0.338562,9.903244
2019-01-28 22:45:42:4542,-0.050201,-0.137451,0.031631,-0.155167,-0.180634,8.206726
2019-01-28 22:45:42:4542,-0.050201,-0.137451,0.031631,-0.662445,-0.192612,8.398148
2019-01-28 22:45:42:4542,-0.050201,-0.137451,0.031631,-0.582291,0.297928,9.311020
2019-01-28 22:45:42:4542,-0.050201,-0.137451,0.031631,-0.138412,0.577896,9.891281
2019-01-28 22:45:42:4542,-0.050201,-0.137451,0.031631,-0.120468,0.873413,9.882904
2019-01-28 22:45:42:4542,-0.050201,-0.137451,0.031631,0.347336,1.000229,9.695068
2019-01-28 22:45:42:4542,-0.050201,-0.137451,0.031631,0.111633,1.087570,9.947510
2019-01-28 22:45:42:4542,-0.050201,-0.137451,0.031631,-0.075012,0.716675,9.863770
2019-01-28 22:45:42:4542,-0.011032,0.115616,-0.091202,-0.075012,0.716675,9.863770
2019-01-28 22:45:42:4542,-0.011032,0.115616,-0.091202,-0.158752,0.297928,9.360077
2019-01-28 22:45:42:4542,-0.011032,0.115616,-0.091202,-0.064240,0.080185,8.753494
2019-01-28 22:45:42:4542,-0.011032,0.115616,-0.091202,-0.406418,-0.434280,7.736542
2019-01-28 22:45:42:4542,-0.011032,0.115616,-0.091202,0.019516,-0.830292,8.203140
2019-01-28 22:45:42:4542,-0.011032,0.115616,-0.091202,0.433472,-0.142365,8.928162
2019-01-28 22:45:42:4542,-0.011032,0.115616,-0.091202,0.523209,1.152176,10.241821
2019-01-28 22:45:42:4542,-0.011032,0.115616,-0.091202,-0.060654,1.948975,9.418701
2019-01-28 22:45:42:4542,-0.011032,0.115616,-0.091202,-0.180298,1.353165,10.156876
2019-01-28 22:45:42:4542,-0.011032,0.115616,-0.091202,-0.130035,0.804016,12.809326
2019-01-28 22:45:42:4542,-0.011032,0.115616,-0.091202,-0.110901,0.331436,12.857178
2019-01-28 22:45:42:4542,-0.287750,0.204010,-0.110870,-0.110901,0.331436,12.857178
2019-01-28 22:45:42:4542,-0.287750,0.204010,-0.110870,0.017120,0.302719,11.646408
2019-01-28 22:45:42:4542,-0.287750,0.204010,-0.110870,-0.088165,0.781281,10.512222
2019-01-28 22:45:42:4542,-0.287750,0.204010,-0.110870,-0.632538,1.820969,9.946304
2019-01-28 22:45:42:4542,-0.287750,0.204010,-0.110870,-1.059662,2.510101,9.139923
2019-01-28 22:45:42:4542,-0.287750,0.204010,-0.110870,-0.503326,2.128433,7.701843
2019-01-28 22:45:43:4543,-0.287750,0.204010,-0.110870,-0.223358,0.830338,6.549698
2019-01-28 22:45:43:4543,-0.287750,0.204010,-0.110870,0.103271,-0.833878,8.071533
2019-01-28 22:45:43:4543,-0.287750,0.204010,-0.110870,0.803162,-1.902283,12.680115
2019-01-28 22:45:43:4543,-0.287750,0.204010,-0.110870,1.304459,-2.005173,15.034653
2019-01-28 22:45:43:4543,-0.287750,0.204010,-0.110870,1.731583,-0.835068,11.873734
2019-01-28 22:45:43:4543,-0.184586,-0.334091,-0.097076,1.731583,-0.835068,11.873734
2019-01-28 22:45:43:4543,-0.184586,-0.334091,-0.097076,1.310440,-0.748932,9.424683
2019-01-28 22:45:43:4543,-0.184586,-0.334091,-0.097076,0.638062,-0.835083,10.174835
2019-01-28 22:45:43:4543,-0.184586,-0.334091,-0.097076,0.847427,-0.514435,11.383209
2019-01-28 22:45:43:4543,-0.184586,-0.334091,-0.097076,0.128387,-0.419922,10.442825
2019-01-28 22:45:43:4543,-0.184586,-0.334091,-0.097076,0.159500,0.126846,8.734344
2019-01-28 22:45:43:4543,-0.184586,-0.334091,-0.097076,-0.474609,0.387665,7.299850
2019-01-28 22:45:43:4543,-0.184586,-0.334091,-0.097076,-0.973511,0.384079,7.831055
2019-01-28 22:45:43:4543,-0.184586,-0.334091,-0.097076,-0.838318,0.569519,9.587387
2019-01-28 22:45:43:4543,-0.184586,-0.334091,-0.097076,-0.523666,0.612579,10.239441
2019-01-28 22:45:43:4543,-0.184586,-0.334091,-0.097076,-0.187469,0.467819,10.603149
2019-01-28 22:45:43:4543,0.209183,-0.138123,-0.102570,-0.187469,0.467819,10.603149
2019-01-28 22:45:43:4543,0.209183,-0.138123,-0.102570,0.481323,0.041901,10.641434
2019-01-28 22:45:43:4543,0.209183,-0.138123,-0.102570,0.922806,-0.027496,10.509827
2019-01-28 22:45:43:4543,0.209183,-0.138123,-0.102570,0.833069,0.446289,10.033646
2019-01-28 22:45:43:4543,0.209183,-0.138123,-0.102570,0.597382,0.989456,9.856583
2019-01-28 22:45:43:4543,0.209183,-0.138123,-0.102570,0.782822,1.198837,9.142319
2019-01-28 22:45:43:4543,0.209183,-0.138123,-0.102570,1.089111,1.025345,9.070541
2019-01-28 22:45:43:4543,0.209183,-0.138123,-0.102570,1.065170,0.879379,9.049011
2019-01-28 22:45:43:4543,0.209183,-0.138123,-0.102570,0.752914,0.995438,9.021484
2019-01-28 22:45:43:4543,0.209183,-0.138123,-0.102570,0.305450,1.133026,9.533554
2019-01-28 22:45:43:4543,0.209183,-0.138123,-0.102570,-0.022369,1.271820,9.685501
2019-01-28 22:45:43:4543,0.329025,0.179626,0.072189,-0.022369,1.271820,9.685501
2019-01-28 22:45:43:4543,0.329025,0.179626,0.072189,-0.247299,1.471603,9.759674
2019-01-28 22:45:43:4543,0.329025,0.179626,0.072189,-0.541611,1.399826,9.678314
2019-01-28 22:45:43:4543,0.329025,0.179626,0.072189,-0.047485,1.440506,9.780014
2019-01-28 22:45:43:4543,0.329025,0.179626,0.072189,-0.106125,1.249084,9.909225
2019-01-28 22:45:43:4543,0.329025,0.179626,0.072189,0.036270,1.287369,9.924774
2019-01-28 22:45:43:4543,0.329025,0.179626,0.072189,0.159500,1.465637,9.285889
2019-01-28 22:45:43:4543,0.329025,0.179626,0.072189,0.393997,1.411789,8.794174
2019-01-28 22:45:43:4543,0.329025,0.179626,0.072189,0.492096,1.411789,8.772629
2019-01-28 22:45:43:4543,0.329025,0.179626,0.072189,0.458603,1.472809,8.985596
2019-01-28 22:45:43:4543,0.329025,0.179626,0.072189,0.557892,1.399826,9.384003
2019-01-28 22:45:43:4543,0.127502,0.127838,0.019730,0.557892,1.399826,9.384003
2019-01-28 22:45:43:4543,0.127502,0.127838,0.019730,0.854614,0.882980,9.513214
2019-01-28 22:45:43:4543,0.127502,0.127838,0.019730,1.110641,0.110092,9.795563
2019-01-28 22:45:43:4543,0.127502,0.127838,0.019730,0.591400,0.015579,10.428467
2019-01-28 22:45:43:4543,0.127502,0.127838,0.019730,-0.159958,0.660446,10.717987
2019-01-28 22:45:43:4543,0.127502,0.127838,0.019730,-0.808411,1.531433,9.984589
2019-01-28 22:45:43:4543,0.127502,0.127838,0.019730,-1.528656,1.803009,9.016708
2019-01-28 22:45:43:4543,0.127502,0.127838,0.019730,-1.210403,1.454865,8.514206
2019-01-28 22:45:43:4543,0.127502,0.127838,0.019730,0.172653,1.077988,9.163864
2019-01-28 22:45:44:4544,0.127502,0.127838,0.019730,1.183624,0.934433,9.911621
2019-01-28 22:45:44:4544,0.127502,0.127838,0.019730,0.824707,1.183273,10.545715
2019-01-28 22:45:45:4545,-0.114883,-0.189499,0.042877,0.824707,1.183273,10.545715
2019-01-28 22:45:45:4545,-0.114883,-0.189499,0.042877,0.237259,1.184479,10.409317
2019-01-28 22:45:45:4545,-0.114883,-0.189499,0.042877,0.676346,0.597046,9.552689
2019-01-28 22:45:45:4545,-0.114883,-0.189499,0.042877,0.983826,0.699921,9.255981
2019-01-28 22:45:45:4545,-0.114883,-0.189499,0.042877,0.767273,1.468033,9.823074
2019-01-28 22:45:45:4545,-0.114883,-0.189499,0.042877,0.123596,1.730042,9.783600
2019-01-28 22:45:45:4545,-0.114883,-0.189499,0.042877,0.484924,1.194046,9.278717
2019-01-28 22:45:45:4545,-0.114883,-0.189499,0.042877,0.864182,0.362534,9.746506
2019-01-28 22:45:45:4545,-0.114883,-0.189499,0.042877,0.642853,0.114883,10.935745
2019-01-28 22:45:45:4545,-0.114883,-0.189499,0.042877,0.133163,0.854263,10.875931
2019-01-28 22:45:45:4545,-0.114883,-0.189499,0.042877,-0.169525,1.591248,9.981003
2019-01-28 22:45:45:4545,-0.048615,0.051544,0.049896,-0.169525,1.591248,9.981003
2019-01-28 22:45:45:4545,-0.048615,0.051544,0.049896,0.036270,1.567322,9.178223
2019-01-28 22:45:45:4545,-0.048615,0.051544,0.049896,0.651215,1.113876,9.240433
2019-01-28 22:45:45:4545,-0.048615,0.051544,0.049896,0.800766,0.672409,9.784790
2019-01-28 22:45:45:4545,-0.048615,0.051544,0.049896,0.679932,0.469025,9.837433
2019-01-28 22:45:45:4545,-0.048615,0.051544,0.049896,0.326996,0.787262,9.406738
2019-01-28 22:45:45:4545,-0.048615,0.051544,0.049896,-0.041504,0.973907,9.034637
2019-01-28 22:45:45:4545,-0.048615,0.051544,0.049896,0.064972,0.617371,8.682907
2019-01-28 22:45:45:4545,-0.048615,0.051544,0.049896,0.277939,0.239304,9.294266
2019-01-28 22:45:45:4545,-0.048615,0.051544,0.049896,0.147537,0.558746,9.654388
2019-01-28 22:45:45:4545,-0.048615,0.051544,0.049896,0.114029,0.811188,9.083694
2019-01-28 22:45:45:4545,-0.091904,0.056000,-0.127121,0.114029,0.811188,9.083694
2019-01-28 22:45:45:4545,-0.091904,0.056000,-0.127121,0.376038,0.644882,8.833649
2019-01-28 22:45:45:4545,-0.091904,0.056000,-0.127121,0.097290,0.479782,9.395966
2019-01-28 22:45:45:4545,-0.091904,0.056000,-0.127121,-0.024765,0.513290,9.728561
2019-01-28 22:45:45:4545,-0.091904,0.056000,-0.127121,-0.070221,0.777695,9.589783
2019-01-28 22:45:45:4545,-0.091904,0.056000,-0.127121,-0.118088,1.094742,9.340927
2019-01-28 22:45:45:4545,-0.091904,0.056000,-0.127121,-0.009216,1.036118,9.110016
2019-01-28 22:45:45:4545,-0.091904,0.056000,-0.127121,0.225296,0.612595,9.366058
2019-01-28 22:45:45:4545,-0.091904,0.056000,-0.127121,0.499268,0.059845,9.985794
2019-01-28 22:45:45:4545,-0.091904,0.056000,-0.127121,0.702667,-0.069366,10.771835
2019-01-28 22:45:45:4545,-0.091904,0.056000,-0.127121,0.598572,0.041901,10.951294
2019-01-28 22:45:45:4545,-0.142487,-0.046616,0.058151,0.598572,0.041901,10.951294
2019-01-28 22:45:45:4545,-0.142487,-0.046616,0.058151,0.203766,0.388855,10.743118
2019-01-28 22:45:45:4545,-0.142487,-0.046616,0.058151,-0.159958,0.747787,10.461975
2019-01-28 22:45:45:4545,-0.142487,-0.046616,0.058151,-0.161148,0.944000,10.088684
2019-01-28 22:45:45:4545,-0.142487,-0.046616,0.058151,-0.064240,0.832733,10.089874
2019-01-28 22:45:45:4545,-0.142487,-0.046616,0.058151,0.133179,0.612595,9.994171
2019-01-28 22:45:45:4545,-0.142487,-0.046616,0.058151,0.586609,0.458252,9.573029
2019-01-28 22:45:45:4545,-0.142487,-0.046616,0.058151,0.594986,0.550385,9.393570
2019-01-28 22:45:45:4545,-0.142487,-0.046616,0.058151,0.551910,0.312286,9.771637
2019-01-28 22:45:45:4545,-0.142487,-0.046616,0.058151,0.551910,0.025146,10.380615
2019-01-28 22:45:45:4545,-0.142487,-0.046616,0.058151,0.597382,0.017975,11.137939
2019-01-28 22:45:45:4545,0.014740,0.000534,0.013016,0.597382,0.017975,11.137939
2019-01-28 22:45:45:4545,0.014740,0.000534,0.013016,0.957504,-0.101669,11.231262
2019-01-28 22:45:45:4545,0.014740,0.000534,0.013016,0.910843,-0.362488,10.812515
2019-01-28 22:45:45:4545,0.174103,-0.013031,-0.102814,0.910843,-0.362488,10.812515
2019-01-28 22:45:45:4545,0.174103,-0.013031,-0.102814,0.612946,0.077789,10.597153
2019-01-28 22:45:45:4545,0.174103,-0.013031,-0.102814,0.350922,0.873413,9.849411
2019-01-28 22:45:45:4545,0.174103,-0.013031,-0.102814,0.116425,1.545792,8.779816
2019-01-28 22:45:45:4545,0.174103,-0.013031,-0.102814,0.075745,1.629532,8.131348
2019-01-28 22:45:45:4545,0.174103,-0.013031,-0.102814,0.161896,1.081589,8.663757
2019-01-28 22:45:45:4545,0.174103,-0.013031,-0.102814,0.633270,0.528839,9.586197
2019-01-28 22:45:45:4545,0.174103,-0.013031,-0.102814,1.125000,0.361343,9.841034
2019-01-28 22:45:45:4545,0.174103,-0.013031,-0.102814,0.837860,1.284973,9.821884
2019-01-28 22:45:45:4545,0.174103,-0.013031,-0.102814,0.556702,1.434525,9.242813
2019-01-28 22:45:45:4545,-0.063568,0.082626,-0.191254,0.556702,1.434525,9.242813
2019-01-28 22:45:45:4545,-0.063568,0.082626,-0.191254,0.517227,0.719070,8.523773
2019-01-28 22:45:45:4545,-0.063568,0.082626,-0.191254,0.458603,0.424744,9.272736
2019-01-28 22:45:45:4545,-0.063568,0.082626,-0.191254,1.016129,-0.078949,10.630661
2019-01-28 22:45:45:4545,-0.063568,0.082626,-0.191254,0.547134,0.775299,11.182205
2019-01-28 22:45:45:4545,-0.063568,0.082626,-0.191254,0.678741,0.715469,9.918793
2019-01-28 22:45:45:4545,-0.063568,0.082626,-0.191254,-0.382492,0.204605,8.814499
2019-01-28 22:45:45:4545,-0.063568,0.082626,-0.191254,-0.075012,1.150970,9.471344
2019-01-28 22:45:45:4545,-0.063568,0.082626,-0.191254,0.019516,1.190460,10.123383
2019-01-28 22:45:45:4545,-0.063568,0.082626,-0.191254,-0.149185,0.876999,9.954681
2019-01-28 22:45:45:4545,-0.063568,0.082626,-0.191254,-0.042709,0.985870,9.906830
2019-01-28 22:45:45:4545,-0.063568,0.082626,-0.191254,-0.479401,1.232330,10.298050
2019-01-28 22:45:45:4545,-0.063568,0.082626,-0.191254,0.165482,0.519272,9.382797
2019-01-28 22:45:45:4545,-0.063568,0.082626,-0.191254,0.433472,0.882980,8.904236
2019-01-28 22:45:45:4545,-0.063568,0.082626,-0.191254,0.909653,0.319473,9.172241
2019-01-28 22:45:45:4545,-0.063568,0.082626,-0.191254,0.635666,0.230942,10.055191
2019-01-28 22:45:45:4545,-0.063568,0.082626,-0.191254,0.324600,0.422363,10.321991
2019-01-28 22:45:45:4545,-0.063568,0.082626,-0.191254,-0.289169,1.302917,9.788391
2019-01-28 22:45:45:4545,-0.063568,0.082626,-0.191254,-0.533234,2.023148,8.849197
2019-01-28 22:45:45:4545,-0.063568,0.082626,-0.191254,-0.707916,1.901123,8.852798
2019-01-28 22:45:45:4545,0.103378,-0.009979,-0.133591,-0.707916,1.901123,8.852798
2019-01-28 22:45:45:4545,0.103378,-0.009979,-0.133591,-0.031937,0.891357,10.446411
2019-01-28 22:45:45:4545,0.103378,-0.009979,-0.133591,0.585419,0.348175,11.426270
2019-01-28 22:45:45:4545,0.103378,-0.009979,-0.133591,0.445435,0.868622,11.061371
2019-01-28 22:45:45:4545,0.103378,-0.009979,-0.133591,0.273163,1.445297,10.274124
2019-01-28 22:45:45:4545,0.103378,-0.009979,-0.133591,0.048233,1.570908,10.197556
2019-01-28 22:45:45:4545,0.103378,-0.009979,-0.133591,0.512436,0.871017,10.544525
2019-01-28 22:45:45:4545,0.103378,-0.009979,-0.133591,0.566269,0.760941,11.311417
2019-01-28 22:45:45:4545,0.103378,-0.009979,-0.133591,0.298279,1.283783,10.335144
2019-01-28 22:45:45:4545,0.103378,-0.009979,-0.133591,0.091293,1.702515,8.954483
2019-01-28 22:45:45:4545,0.103378,-0.009979,-0.133591,-0.003220,1.846100,8.082306
2019-01-28 22:45:45:4545,0.350037,-0.037399,-0.025345,-0.003220,1.846100,8.082306
2019-01-28 22:45:45:4545,0.350037,-0.037399,-0.025345,0.384430,1.424957,7.884888
2019-01-28 22:45:45:4545,0.350037,-0.037399,-0.025345,0.873749,0.989456,8.697266
2019-01-28 22:45:45:4545,0.350037,-0.037399,-0.025345,0.816315,0.716675,9.563461
2019-01-28 22:45:45:4545,0.350037,-0.037399,-0.025345,0.275543,1.001419,9.821884
2019-01-28 22:45:45:4545,0.350037,-0.037399,-0.025345,-0.126465,1.334030,9.821884
2019-01-28 22:45:45:4545,0.350037,-0.037399,-0.025345,-0.285568,1.544586,9.861359
2019-01-28 22:45:45:4545,0.350037,-0.037399,-0.025345,-0.224564,1.574493,9.909225
2019-01-28 22:45:45:4545,0.350037,-0.037399,-0.025345,-0.015182,1.289749,9.477325
2019-01-28 22:45:45:4545,0.350037,-0.037399,-0.025345,0.332977,0.978699,8.850403
2019-01-28 22:45:45:4545,0.128723,0.045914,-0.171906,0.332977,0.978699,8.850403
2019-01-28 22:45:47:4547,0.128723,0.045914,-0.171906,0.122406,1.060043,8.434052
2019-01-28 22:45:47:4547,0.128723,0.045914,-0.171906,-0.268829,1.404617,8.453186
2019-01-28 22:45:47:4547,0.128723,0.045914,-0.171906,-0.736633,2.049484,7.997360
2019-01-28 22:45:47:4547,0.128723,0.045914,-0.171906,-0.439911,2.120071,7.718597
2019-01-28 22:45:47:4547,0.128723,0.045914,-0.171906,0.112839,1.306503,8.271332
2019-01-28 22:45:47:4547,0.128723,0.045914,-0.171906,0.207352,0.338608,9.449799
2019-01-28 22:45:47:4547,0.128723,0.045914,-0.171906,0.258789,0.293152,9.965454
2019-01-28 22:45:47:4547,0.128723,0.045914,-0.171906,0.335358,1.005005,9.879303
2019-01-28 22:45:47:4547,0.128723,0.045914,-0.171906,0.170258,1.037323,10.508621
2019-01-28 22:45:47:4547,0.128723,0.045914,-0.171906,0.303055,0.786072,11.359283
2019-01-28 22:45:47:4547,-0.551041,-0.126465,0.026199,0.303055,0.786072,11.359283
2019-01-28 22:45:47:4547,-0.551041,-0.126465,0.026199,0.522003,0.597031,11.950302
2019-01-28 22:45:47:4547,-0.551041,-0.126465,0.026199,0.319809,0.378098,12.322388
2019-01-28 22:45:47:4547,-0.551041,-0.126465,0.026199,-0.036728,0.477386,11.926376
2019-01-28 22:45:47:4547,-0.551041,-0.126465,0.026199,-0.323868,1.051666,10.259781
2019-01-28 22:45:47:4547,-0.551041,-0.126465,0.026199,-0.136017,1.204819,8.881516
2019-01-28 22:45:47:4547,-0.551041,-0.126465,0.026199,0.428680,0.809998,7.942322
2019-01-28 22:45:47:4547,-0.551041,-0.126465,0.026199,0.529190,0.550385,8.185196
2019-01-28 22:45:47:4547,-0.551041,-0.126465,0.026199,0.160690,0.528839,9.020294
2019-01-28 22:45:47:4547,-0.551041,-0.126465,0.026199,-0.022369,0.489349,9.284698
2019-01-28 22:45:47:4547,-0.551041,-0.126465,0.026199,-0.258057,0.843491,9.986984
2019-01-28 22:45:47:4547,0.157135,-0.133545,0.108109,-0.258057,0.843491,9.986984
2019-01-28 22:45:47:4547,0.157135,-0.133545,0.108109,-0.546387,1.250275,11.190582
2019-01-28 22:45:47:4547,0.157135,-0.133545,0.108109,-0.132431,1.261047,11.215698
2019-01-28 22:45:47:4547,0.157135,-0.133545,0.108109,0.445435,0.661636,11.184601
2019-01-28 22:45:47:4547,0.157135,-0.133545,0.108109,0.587814,0.470215,11.628464
2019-01-28 22:45:47:4547,0.157135,-0.133545,0.108109,0.468170,0.829132,11.045822
2019-01-28 22:45:47:4547,0.157135,-0.133545,0.108109,0.419113,1.383087,9.715408
2019-01-28 22:45:47:4547,0.157135,-0.133545,0.108109,0.275543,1.896332,8.334747
2019-01-28 22:45:47:4547,0.157135,-0.133545,0.108109,0.248032,1.874802,7.613312
2019-01-28 22:45:47:4547,0.157135,-0.133545,0.108109,0.742142,1.499130,7.831055
2019-01-28 22:45:47:4547,0.272888,-0.090546,0.283798,0.742142,1.499130,7.831055
2019-01-28 22:45:47:4547,0.272888,-0.090546,0.283798,1.002960,1.250275,8.863556
2019-01-28 22:45:47:4547,0.272888,-0.090546,0.283798,0.764877,1.363937,9.632858
2019-01-28 22:45:47:4547,0.272888,-0.090546,0.283798,0.543549,1.422562,9.549103
2019-01-28 22:45:47:4547,0.272888,-0.090546,0.283798,0.656006,0.782471,9.332550
2019-01-28 22:45:47:4547,0.272888,-0.090546,0.283798,0.687119,0.492950,10.344711
2019-01-28 22:45:48:4548,0.272888,-0.090546,0.283798,0.219315,0.914078,11.294662
2019-01-28 22:45:48:4548,0.272888,-0.090546,0.283798,0.173859,1.280182,10.671341
2019-01-28 22:45:48:4548,0.272888,-0.090546,0.283798,0.393997,0.976303,9.948715
2019-01-28 22:45:48:4548,0.272888,-0.090546,0.283798,0.490906,1.143799,9.595764
2019-01-28 22:45:48:4548,0.272888,-0.090546,0.283798,0.142746,1.556564,9.567047
2019-01-28 22:45:48:4548,-0.000839,0.032364,0.209198,0.142746,1.556564,9.567047
2019-01-28 22:45:48:4548,-0.000839,0.032364,0.209198,0.426285,1.487167,9.089676
2019-01-28 22:45:48:4548,-0.000839,0.032364,0.209198,0.417923,1.119873,8.996353
2019-01-28 22:45:48:4548,-0.000839,0.032364,0.209198,0.529190,0.838715,9.346909
2019-01-28 22:45:48:4548,-0.000839,0.032364,0.209198,0.386810,1.036118,9.557480
2019-01-28 22:45:48:4548,-0.000839,0.032364,0.209198,0.045837,1.609192,9.473740
2019-01-28 22:45:48:4548,-0.000839,0.032364,0.209198,-0.114487,1.885574,9.111221
2019-01-28 22:45:48:4548,-0.000839,0.032364,0.209198,0.372452,1.396240,8.815704
2019-01-28 22:45:48:4548,-0.000839,0.032364,0.209198,0.295883,1.256256,9.423477
2019-01-28 22:45:48:4548,-0.000839,0.032364,0.209198,0.435867,0.941605,10.545715
2019-01-28 22:45:48:4548,-0.170898,0.045181,0.067307,0.435867,0.941605,10.545715
2019-01-28 22:45:48:4548,-0.170898,0.045181,0.067307,1.001770,0.626953,10.795761
2019-01-28 22:45:48:4548,-0.170898,0.045181,0.067307,1.152512,0.611389,9.908020
2019-01-28 22:45:48:4548,-0.170898,0.045181,0.067307,0.505264,1.211990,9.156677
2019-01-28 22:45:48:4548,-0.170898,0.045181,0.067307,-0.106110,2.045883,9.033447
2019-01-28 22:45:48:4548,-0.170898,0.045181,0.067307,0.222900,1.740799,10.027664
2019-01-28 22:45:48:4548,-0.170898,0.045181,0.067307,0.847427,0.461838,11.220490
2019-01-28 22:45:48:4548,-0.170898,0.045181,0.067307,0.823502,-0.149536,12.012512
2019-01-28 22:45:48:4548,-0.170898,0.045181,0.067307,0.610535,0.472610,10.788589
2019-01-28 22:45:48:4548,-0.170898,0.045181,0.067307,0.157104,1.847290,8.389771
2019-01-28 22:45:48:4548,-0.170898,0.045181,0.067307,-0.055862,2.478989,7.473328
2019-01-28 22:45:48:4548,-0.025635,0.018982,0.095352,-0.055862,2.478989,7.473328
2019-01-28 22:45:48:4548,-0.025635,0.018982,0.095352,0.664383,0.981079,9.296661
2019-01-28 22:45:48:4548,-0.025635,0.018982,0.095352,1.273346,-0.592209,12.049606
2019-01-28 22:45:48:4548,-0.025635,0.018982,0.095352,0.015930,0.308701,13.259171
2019-01-28 22:45:48:4548,-0.025635,0.018982,0.095352,-0.756958,1.835327,10.744324
2019-01-28 22:45:48:4548,-0.025635,0.018982,0.095352,-0.224564,2.744598,5.684692
2019-01-28 22:45:48:4548,-0.025635,0.018982,0.095352,0.490906,2.014786,2.932953
2019-01-28 22:45:48:4548,-0.025635,0.018982,0.095352,0.894089,0.556351,5.385590
2019-01-28 22:45:48:4548,-0.025635,0.018982,0.095352,1.500671,-0.348145,9.741730
2019-01-28 22:45:48:4548,-0.025635,0.018982,0.095352,2.490112,-2.671570,19.815506
2019-01-28 22:45:48:4548,0.614120,0.081039,-0.089676,2.490112,-2.671570,19.815506
2019-01-28 22:45:48:4548,0.614120,0.081039,-0.089676,1.745941,-2.056610,13.229263
2019-01-28 22:45:48:4548,0.614120,0.081039,-0.089676,0.208542,-0.156708,8.735535
2019-01-28 22:45:48:4548,0.614120,0.081039,-0.089676,-0.565536,1.146194,7.758072
2019-01-28 22:45:48:4548,0.614120,0.081039,-0.089676,-1.017776,1.818573,6.806931
2019-01-28 22:45:48:4548,0.614120,0.081039,-0.089676,-1.180496,1.856857,5.751694
2019-01-28 22:45:48:4548,0.614120,0.081039,-0.089676,-1.459259,1.823364,6.141724
2019-01-28 22:45:48:4548,0.614120,0.081039,-0.089676,-1.221161,1.043304,6.061569
2019-01-28 22:45:48:4548,0.614120,0.081039,-0.089676,-0.152771,-0.478546,5.985001
2019-01-28 22:45:48:4548,0.614120,0.081039,-0.089676,1.012527,4.876602,11.859375
2019-01-28 22:45:48:4548,-0.511398,0.115128,-0.131332,1.012527,4.876602,11.859375
2019-01-28 22:45:48:4548,-0.511398,0.115128,-0.131332,1.591599,7.563736,14.785797
2019-01-28 22:45:48:4548,-0.511398,0.115128,-0.131332,3.605164,6.390060,17.232468
2019-01-28 22:45:48:4548,-0.511398,0.115128,-0.131332,-0.786880,2.207397,16.178421
2019-01-28 22:45:48:4548,-0.511398,0.115128,-0.131332,-1.065628,-0.859009,13.887299
2019-01-28 22:45:48:4548,-0.511398,0.115128,-0.131332,0.300674,-0.990601,12.804535
2019-01-28 22:45:48:4548,-0.511398,0.115128,-0.131332,-0.694748,1.580490,10.886688
2019-01-28 22:45:48:4548,-0.511398,0.115128,-0.131332,-1.799042,3.832138,10.954880
2019-01-28 22:45:48:4548,-0.511398,0.115128,-0.131332,-2.248886,4.169525,9.315796
2019-01-28 22:45:48:4548,-0.511398,0.115128,-0.131332,-0.762939,2.827148,5.880905
2019-01-28 22:45:48:4548,-0.511398,0.115128,-0.131332,1.201569,1.087570,4.475128
2019-01-28 22:45:48:4548,-0.268936,-0.038803,0.172501,1.201569,1.087570,4.475128
2019-01-28 22:45:48:4548,-0.268936,-0.038803,0.172501,1.995987,-0.064590,4.616302
2019-01-28 22:45:48:4548,-0.268936,-0.038803,0.172501,1.561691,-1.302872,6.038834
2019-01-28 22:45:48:4548,-0.268936,-0.038803,0.172501,1.497086,-1.929794,9.510818
2019-01-28 22:45:48:4548,-0.268936,-0.038803,0.172501,1.792603,-0.981033,10.962067
2019-01-28 22:45:48:4548,-0.268936,-0.038803,0.172501,1.507843,0.631729,9.801544
2019-01-28 22:45:48:4548,-0.268936,-0.038803,0.172501,0.867767,1.277786,9.054977
2019-01-28 22:45:48:4548,-0.268936,-0.038803,0.172501,0.502869,0.869827,9.604141
2019-01-28 22:45:48:4548,-0.268936,-0.038803,0.172501,0.354507,0.423553,11.815109
2019-01-28 22:45:48:4548,-0.268936,-0.038803,0.172501,0.486115,0.804016,11.780411
2019-01-28 22:45:48:4548,-0.052078,0.055573,-0.162125,0.486115,0.804016,11.780411
2019-01-28 22:45:48:4548,-0.052078,0.055573,-0.162125,0.032669,1.361542,9.187790
2019-01-28 22:45:48:4548,-0.052078,0.055573,-0.162125,0.110443,1.207199,6.994766
2019-01-28 22:45:48:4548,-0.052078,0.055573,-0.162125,0.391602,0.410400,7.586990
2019-01-28 22:45:48:4548,-0.052078,0.055573,-0.162125,0.973053,0.320663,9.624481
2019-01-28 22:45:48:4548,-0.052078,0.055573,-0.162125,1.144135,1.050476,10.479919
2019-01-28 22:45:48:4548,-0.052078,0.055573,-0.162125,1.093887,1.381882,10.196365
2019-01-28 22:45:48:4548,-0.052078,0.055573,-0.162125,0.790009,0.866226,9.663956
2019-01-28 22:45:48:4548,-0.052078,0.055573,-0.162125,0.352112,0.141205,10.773041
2019-01-28 22:45:48:4548,-0.052078,0.055573,-0.162125,0.843842,-0.183029,12.537735
2019-01-28 22:45:48:4548,-0.052078,0.055573,-0.162125,0.867767,-0.003571,12.025681
2019-01-28 22:45:48:4548,-0.180054,-0.105453,-0.213074,0.867767,-0.003571,12.025681
2019-01-28 22:45:48:4548,-0.180054,-0.105453,-0.213074,0.066177,0.558746,9.785995
2019-01-28 22:45:48:4548,-0.180054,-0.105453,-0.213074,-0.682785,1.295746,7.141922
2019-01-28 22:45:48:4548,-0.180054,-0.105453,-0.213074,-0.967529,1.489563,5.248001
2019-01-28 22:45:48:4548,-0.180054,-0.105453,-0.213074,-0.335831,0.659256,5.157074
2019-01-28 22:45:48:4548,-0.180054,-0.105453,-0.213074,0.827087,-0.874557,6.524567
2019-01-28 22:45:48:4548,-0.180054,-0.105453,-0.213074,1.818924,-1.980042,8.831253
2019-01-28 22:45:48:4548,-0.180054,-0.105453,-0.213074,2.173050,-2.102081,10.555283
2019-01-28 22:45:48:4548,-0.180054,-0.105453,-0.213074,1.220703,-1.554123,10.405731
2019-01-28 22:45:48:4548,-0.180054,-0.105453,-0.213074,0.572250,-1.307663,10.098251
2019-01-28 22:45:48:4548,0.403564,0.284088,-0.405121,0.572250,-1.307663,10.098251
2019-01-28 22:45:48:4548,0.403564,0.284088,-0.405121,0.630890,-1.412933,11.129562
2019-01-28 22:45:48:4548,0.403564,0.284088,-0.405121,0.408340,-1.545746,12.347519
2019-01-28 22:45:48:4548,0.403564,0.284088,-0.405121,-0.002029,-1.211945,11.861771
2019-01-28 22:45:48:4548,0.403564,0.284088,-0.405121,-1.331238,0.210602,11.526764
2019-01-28 22:45:48:4548,0.403564,0.284088,-0.405121,-2.628159,1.765930,8.645813
2019-01-28 22:45:48:4548,0.403564,0.284088,-0.405121,-0.975906,2.752975,3.886490
2019-01-28 22:45:48:4548,0.403564,0.284088,-0.405121,0.749329,5.627945,0.371429
2019-01-28 22:45:48:4548,0.403564,0.284088,-0.405121,-0.214996,4.124054,5.372437
2019-01-28 22:45:48:4548,0.403564,0.284088,-0.405121,-0.106125,-1.698883,24.183609
2019-01-28 22:45:48:4548,0.403564,0.284088,-0.405121,0.994583,-4.082138,30.803360
2019-01-28 22:45:48:4548,0.681549,-0.201721,0.083923,0.994583,-4.082138,30.803360
2019-01-28 22:45:48:4548,0.681549,-0.201721,0.083923,1.961288,-4.000778,23.575821
2019-01-28 22:45:48:4548,0.681549,-0.201721,0.083923,1.013733,-0.992996,15.896057
2019-01-28 22:45:48:4548,0.681549,-0.201721,0.083923,-1.989273,3.209991,9.667542
2019-01-28 22:45:48:4548,0.681549,-0.201721,0.083923,-3.233536,5.320465,5.664352
2019-01-28 22:45:48:4548,0.681549,-0.201721,0.083923,-3.564941,4.839508,3.177017
2019-01-28 22:45:48:4548,0.681549,-0.201721,0.083923,-2.536026,2.930038,1.206528
2019-01-28 22:45:48:4548,0.681549,-0.201721,0.083923,-0.639709,0.939209,0.967255
2019-01-28 22:45:48:4548,0.681549,-0.201721,0.083923,1.328384,0.179489,2.055984
2019-01-28 22:45:48:4548,0.681549,-0.201721,0.083923,2.218521,1.048080,3.305038
2019-01-28 22:45:48:4548,-0.256729,-0.341293,0.366623,2.218521,1.048080,3.305038
2019-01-28 22:45:48:4548,-0.256729,-0.341293,0.366623,0.153519,0.665237,7.393173
2019-01-28 22:45:48:4548,-0.256729,-0.341293,0.366623,-0.212601,-0.489319,15.038239
2019-01-28 22:45:48:4548,-0.256729,-0.341293,0.366623,1.077148,-0.367279,18.352295
2019-01-28 22:45:49:4549,-0.256729,-0.341293,0.366623,1.609543,0.757355,13.944717
2019-01-28 22:45:49:4549,-0.256729,-0.341293,0.366623,0.179825,2.244492,8.693665
2019-01-28 22:45:49:4549,-0.256729,-0.341293,0.366623,-0.496155,3.652664,5.450195
2019-01-28 22:45:49:4549,-0.256729,-0.341293,0.366623,-0.423172,3.980484,4.156876
2019-01-28 22:45:49:4549,-0.256729,-0.341293,0.366623,-0.554764,2.921661,4.320786
2019-01-28 22:45:49:4549,-0.256729,-0.341293,0.366623,-0.380096,1.117477,8.394577
2019-01-28 22:45:49:4549,-0.246399,-0.038010,0.183121,-0.380096,1.117477,8.394577
2019-01-28 22:45:49:4549,-0.246399,-0.038010,0.183121,1.226685,0.118469,10.526566
2019-01-28 22:45:49:4549,-0.246399,-0.038010,0.183121,1.980438,0.686768,9.302643
2019-01-28 22:45:49:4549,-0.246399,-0.038010,0.183121,1.177643,1.721664,7.856186
2019-01-28 22:45:49:4549,-0.246399,-0.038010,0.183121,0.433472,2.543594,7.835846
2019-01-28 22:45:49:4549,-0.246399,-0.038010,0.183121,0.358093,2.621368,10.008530
2019-01-28 22:45:49:4549,-0.246399,-0.038010,0.183121,1.093887,2.286377,12.857178
2019-01-28 22:45:49:4549,-0.246399,-0.038010,0.183121,1.598770,1.447678,13.466156
2019-01-28 22:45:49:4549,-0.246399,-0.038010,0.183121,1.677750,0.995438,12.887100
2019-01-28 22:45:49:4549,-0.246399,-0.038010,0.183121,1.157303,1.313690,10.953690
2019-01-28 22:45:49:4549,-0.246399,-0.038010,0.183121,0.519623,1.886765,8.541733
2019-01-28 22:45:49:4549,-0.246399,-0.038010,0.183121,0.086517,2.213394,6.763855
2019-01-28 22:45:49:4549,-0.246399,-0.038010,0.183121,-0.133636,2.193054,6.308029
2019-01-28 22:45:49:4549,-0.246399,-0.038010,0.183121,0.116425,1.755173,7.285492
2019-01-28 22:45:49:4549,-0.246399,-0.038010,0.183121,0.665573,1.209595,8.735550
2019-01-28 22:45:49:4549,-0.246399,-0.038010,0.183121,1.390594,0.173508,10.271729
2019-01-28 22:45:49:4549,-0.246399,-0.038010,0.183121,2.085724,-0.869766,12.196762
2019-01-28 22:45:49:4549,-0.246399,-0.038010,0.183121,1.961288,-0.666382,12.328369
2019-01-28 22:45:49:4549,-0.246399,-0.038010,0.183121,0.723007,0.643692,10.649796
2019-01-28 22:45:49:4549,-0.246399,-0.038010,0.183121,-0.225754,2.153564,8.225876
2019-01-28 22:45:49:4549,-0.111832,0.126785,-0.110809,-0.225754,2.153564,8.225876
2019-01-28 22:45:49:4549,-0.111832,0.126785,-0.110809,-0.944809,2.909698,6.875122
2019-01-28 22:45:49:4549,-0.111832,0.126785,-0.110809,-1.111099,2.638107,7.689880
2019-01-28 22:45:49:4549,-0.111832,0.126785,-0.110809,-0.132431,1.463242,9.602936
2019-01-28 22:45:49:4549,-0.111832,0.126785,-0.110809,0.957504,-0.315842,11.437042
2019-01-28 22:45:49:4549,-0.111832,0.126785,-0.110809,1.414536,-1.454819,13.049805
2019-01-28 22:45:49:4549,-0.111832,0.126785,-0.110809,1.348724,-1.013351,12.914612
2019-01-28 22:45:49:4549,-0.111832,0.126785,-0.110809,0.356903,0.227341,11.117599
2019-01-28 22:45:49:4549,-0.111832,0.126785,-0.110809,-0.682785,1.062439,10.332764
2019-01-28 22:45:49:4549,-0.111832,0.126785,-0.110809,-0.296341,0.961945,10.415298
2019-01-28 22:45:49:4549,-0.111832,0.126785,-0.110809,0.291107,0.526443,10.753891
2019-01-28 22:45:49:4549,-0.291840,0.091553,-0.013260,0.291107,0.526443,10.753891
2019-01-28 22:45:49:4549,-0.291840,0.091553,-0.013260,0.271957,0.538406,10.301651
2019-01-28 22:45:49:4549,-0.291840,0.091553,-0.013260,0.139160,0.806412,9.506027
2019-01-28 22:45:49:4549,-0.291840,0.091553,-0.013260,0.164276,0.948776,9.063354
2019-01-28 22:45:49:4549,-0.291840,0.091553,-0.013260,0.474152,0.315872,9.325378
2019-01-28 22:45:49:4549,-0.291840,0.091553,-0.013260,1.073547,-0.698685,10.165253
2019-01-28 22:45:49:4549,-0.291840,0.091553,-0.013260,1.401367,-1.137772,10.802948
2019-01-28 22:45:49:4549,-0.291840,0.091553,-0.013260,0.921600,-0.308655,9.985794
2019-01-28 22:45:49:4549,-0.291840,0.091553,-0.013260,0.175049,0.902115,8.191177
2019-01-28 22:45:49:4549,-0.291840,0.091553,-0.013260,-0.069031,1.115082,6.485092
2019-01-28 22:45:49:4549,0.035446,-0.009979,0.015152,-0.069031,1.115082,6.485092
2019-01-28 22:45:49:4549,0.035446,-0.009979,0.015152,0.163086,0.169922,6.878708
2019-01-28 22:45:49:4549,0.035446,-0.009979,0.015152,1.097488,-0.792007,9.071732
2019-01-28 22:45:49:4549,0.035446,-0.009979,0.015152,1.639450,-1.190414,10.802948
2019-01-28 22:45:49:4549,0.035446,-0.009979,0.015152,1.068771,-0.759705,9.762070
2019-01-28 22:45:49:4549,0.035446,-0.009979,0.015152,0.393997,0.168716,8.087082
2019-01-28 22:45:49:4549,0.035446,-0.009979,0.015152,0.743347,0.607803,9.145920
2019-01-28 22:45:49:4549,0.035446,-0.009979,0.015152,1.515030,0.178284,10.417694
2019-01-28 22:45:49:4549,0.035446,-0.009979,0.015152,1.430084,-0.214142,10.445221
2019-01-28 22:45:49:4549,0.035446,-0.009979,0.015152,0.763687,0.119675,10.460770
2019-01-28 22:45:49:4549,0.035446,-0.009979,0.015152,0.371262,0.918869,10.233459
2019-01-28 22:45:49:4549,0.321808,0.032913,-0.194748,0.371262,0.918869,10.233459
2019-01-28 22:45:49:4549,0.321808,0.032913,-0.194748,0.346130,0.944000,9.960663
2019-01-28 22:45:49:4549,0.321808,0.032913,-0.194748,0.487305,0.825546,9.812317
2019-01-28 22:45:49:4549,0.321808,0.032913,-0.194748,0.035065,1.263443,10.331558
2019-01-28 22:45:49:4549,0.321808,0.032913,-0.194748,-0.115692,1.562546,10.391388
2019-01-28 22:45:49:4549,0.321808,0.032913,-0.194748,0.149918,1.069626,9.289490
