Time,Gx,Gy,Gz,Ax,Ay,Az
2019-01-28 22:53:54:5354,-0.023804,0.079086,-0.145264,0.000000,0.000000,0.000000
2019-01-28 22:53:54:5354,-0.023804,0.079086,-0.145264,-1.319275,3.351181,9.430664
2019-01-28 22:53:54:5354,-0.023804,0.079086,-0.145264,-1.284576,3.393051,8.777420
2019-01-28 22:53:54:5354,-0.023804,0.079086,-0.145264,-1.380295,3.537811,8.629059
2019-01-28 22:53:54:5354,-0.023804,0.079086,-0.145264,-1.484390,3.558151,8.958069
2019-01-28 22:53:54:5354,-0.023804,0.079086,-0.145264,-1.246292,3.281784,9.581406
2019-01-28 22:53:54:5354,-0.023804,0.079086,-0.145264,-1.105118,3.003021,9.513214
2019-01-28 22:53:54:5354,-0.023804,0.079086,-0.145264,-0.856262,2.916870,9.562271
2019-01-28 22:53:54:5354,-0.023804,0.079086,-0.145264,-0.942413,2.980286,9.218903
2019-01-28 22:53:54:5354,-0.023804,0.079086,-0.145264,-0.934036,3.065231,9.143524
2019-01-28 22:53:54:5354,-0.023804,0.079086,-0.145264,-1.038116,3.114288,8.846817
2019-01-28 22:53:54:5354,-0.023804,0.079086,-0.145264,-0.881393,2.938416,8.765457
2019-01-28 22:53:54:5354,-0.023804,0.079086,-0.145264,-0.717484,2.846283,8.792969
2019-01-28 22:53:54:5354,-0.023804,0.079086,-0.145264,-0.608612,2.828339,9.205734
2019-01-28 22:53:54:5354,-0.023804,0.079086,-0.145264,-0.768921,2.875000,9.606522
2019-01-28 22:53:54:5354,-0.023804,0.079086,-0.145264,-0.794052,2.770920,9.713013
2019-01-28 22:53:54:5354,-0.023804,0.079086,-0.145264,-0.640915,2.690750,9.830261
2019-01-28 22:53:54:5354,-0.023804,0.079086,-0.145264,-0.547592,2.639313,9.612518
2019-01-28 22:53:54:5354,-0.023804,0.079086,-0.145264,-0.548782,2.610596,9.221283
2019-01-28 22:53:54:5354,-0.023804,0.079086,-0.145264,-0.484177,2.520859,9.229660
2019-01-28 22:53:54:5354,-0.023804,0.079086,-0.145264,-0.496140,2.445496,9.594574
2019-01-28 22:53:54:5354,-0.023804,0.079086,-0.145264,-0.475800,2.388062,9.777618
2019-01-28 22:53:54:5354,-0.023804,0.079086,-0.145264,-0.382477,2.470612,9.724976
2019-01-28 22:53:54:5354,-0.023804,0.079086,-0.145264,-0.493759,2.389267,9.491669
2019-01-28 22:53:54:5354,-0.023804,0.079086,-0.145264,0.518417,1.917877,9.199753
2019-01-28 22:53:54:5354,-0.023804,0.079086,-0.145264,0.062592,1.958557,9.774033
2019-01-28 22:53:54:5354,-0.023804,0.079086,-0.145264,-0.626556,3.036514,9.693863
2019-01-28 22:53:54:5354,-0.023804,0.079086,-0.145264,-0.822769,2.711090,9.288284
2019-01-28 22:53:54:5354,-0.023804,0.079086,-0.145264,0.304260,2.785263,8.656586
2019-01-28 22:53:54:5354,-0.023804,0.079086,-0.145264,-0.577499,1.960953,9.454590
2019-01-28 22:53:54:5354,-0.023804,0.079086,-0.145264,-0.706711,1.898727,9.521576
2019-01-28 22:53:54:5354,-0.023804,0.079086,-0.145264,-0.650482,2.120071,9.214111
2019-01-28 22:53:54:5354,-0.023804,0.079086,-0.145264,-0.283188,2.202621,9.215302
2019-01-28 22:53:54:5354,-0.023804,0.079086,-0.145264,-0.571518,2.353363,9.331360
2019-01-28 22:53:54:5354,-0.023804,0.079086,-0.145264,-1.133835,2.240906,9.613708
2019-01-28 22:53:54:5354,-0.023804,0.079086,-0.145264,-0.831146,2.286377,9.244019
2019-01-28 22:53:54:5354,-0.023804,0.079086,-0.145264,-0.072617,2.060242,9.513214
2019-01-28 22:53:54:5354,-0.023804,0.079086,-0.145264,0.365280,1.725250,10.050400
2019-01-28 22:53:54:5354,-0.023804,0.079086,-0.145264,0.274353,1.779083,10.290878
2019-01-28 22:53:54:5354,-0.023804,0.079086,-0.145264,0.020706,2.002823,10.514603
2019-01-28 22:53:54:5354,-0.023804,0.079086,-0.145264,0.014725,1.964523,9.995361
2019-01-28 22:53:54:5354,-0.023804,0.079086,-0.145264,-0.102524,1.430939,9.096863
2019-01-28 22:53:54:5354,-0.023804,0.079086,-0.145264,0.312637,1.825745,9.702240
2019-01-28 22:53:54:5354,-0.023804,0.079086,-0.145264,0.404770,1.643890,9.334946
2019-01-28 22:53:54:5354,-0.023804,0.079086,-0.145264,0.190598,1.981293,9.641235
2019-01-28 22:53:54:5354,-0.023804,0.079086,-0.145264,-0.133636,1.898727,9.827866
2019-01-28 22:53:54:5354,-0.023804,0.079086,-0.145264,-0.158752,1.844894,9.654388
2019-01-28 22:53:54:5354,-0.023804,0.079086,-0.145264,-0.497345,1.594849,9.437836
2019-01-28 22:53:54:5354,-0.023804,0.079086,-0.145264,-0.905319,1.964539,8.828873
2019-01-28 22:53:54:5354,-0.023804,0.079086,-0.145264,-0.773712,2.254074,8.471146
2019-01-28 22:53:54:5354,-0.023804,0.079086,-0.145264,-0.122864,2.112885,9.167450
2019-01-28 22:53:54:5354,-0.023804,0.079086,-0.145264,0.297089,2.103317,9.716599
2019-01-28 22:53:54:5354,-0.023804,0.079086,-0.145264,0.845032,2.057861,10.288483
2019-01-28 22:53:54:5354,-0.023804,0.079086,-0.145264,0.166672,1.458450,10.271729
2019-01-28 22:53:54:5354,-0.023804,0.079086,-0.145264,-0.229340,1.472809,9.825470
2019-01-28 22:53:54:5354,-0.023804,0.079086,-0.145264,-0.310699,1.563736,9.244019
2019-01-28 22:53:54:5354,-0.023804,0.079086,-0.145264,-0.534439,1.655869,9.308624
2019-01-28 22:53:54:5354,-0.023804,0.079086,-0.145264,-0.295151,1.719269,9.663956
2019-01-28 22:53:54:5354,-0.023804,0.079086,-0.145264,-0.182693,1.402222,9.480911
2019-01-28 22:53:54:5354,-0.023804,0.079086,-0.145264,-0.248489,1.636719,9.389984
2019-01-28 22:53:54:5354,-0.023804,0.079086,-0.145264,-0.331039,1.499130,9.252396
2019-01-28 22:53:54:5354,-0.023804,0.079086,-0.145264,-0.013992,1.355560,9.783600
2019-01-28 22:53:54:5354,-0.023804,0.079086,-0.145264,0.087708,1.344803,9.760864
2019-01-28 22:53:54:5354,-0.023804,0.079086,-0.145264,0.240845,1.322067,9.745316
2019-01-28 22:53:54:5354,-0.023804,0.079086,-0.145264,0.099670,1.268219,10.131760
2019-01-28 22:53:54:5354,-0.023804,0.079086,-0.145264,-0.071411,1.137817,10.165253
2019-01-28 22:53:54:5354,-0.023804,0.079086,-0.145264,-0.040314,1.172516,9.986984
2019-01-28 22:53:54:5354,-0.023804,0.079086,-0.145264,0.011139,1.147385,9.784805
2019-01-28 22:53:54:5354,-0.023804,0.079086,-0.145264,0.000381,1.247879,9.858978
2019-01-28 22:53:54:5354,-0.023804,0.079086,-0.145264,-0.200638,1.292145,9.714203
2019-01-28 22:53:54:5354,-0.023804,0.079086,-0.145264,-0.236526,1.274200,9.646011
2019-01-28 22:53:54:5354,-0.023804,0.079086,-0.145264,-0.230545,1.201218,9.768051
2019-01-28 22:53:54:5354,-0.023804,0.079086,-0.145264,-0.182693,1.275406,9.677124
2019-01-28 22:53:54:5354,-0.023804,0.079086,-0.145264,-0.565536,1.306503,7.017502
2019-01-28 22:53:54:5354,-0.023804,0.079086,-0.145264,-0.340622,1.215576,9.086090
2019-01-28 22:53:54:5354,-0.023804,0.079086,-0.145264,0.131973,1.088760,10.208328
2019-01-28 22:53:54:5354,-0.023804,0.079086,-0.145264,-0.213791,1.038513,10.940521
2019-01-28 22:53:54:5354,-0.023804,0.079086,-0.145264,-0.064240,1.150970,10.247818
2019-01-28 22:53:54:5354,-0.023804,0.079086,-0.145264,-0.140808,1.185669,9.525177
2019-01-28 22:53:54:5354,-0.023804,0.079086,-0.145264,-0.066635,1.112686,9.354095
2019-01-28 22:53:54:5354,-0.023804,0.079086,-0.145264,0.025497,1.069611,9.464157
2019-01-28 22:53:54:5354,-0.023804,0.079086,-0.145264,-0.024765,0.945190,9.502441
2019-01-28 22:53:54:5354,-0.023804,0.079086,-0.145264,-0.037918,0.842300,9.653183
2019-01-28 22:53:54:5354,-0.023804,0.079086,-0.145264,0.078140,0.789658,9.912811
2019-01-28 22:53:54:5354,-0.023804,0.079086,-0.145264,0.155899,0.741806,10.030060
2019-01-28 22:53:54:5354,-0.023804,0.079086,-0.145264,0.228882,0.723846,9.975021
2019-01-28 22:53:54:5354,-0.023804,0.079086,-0.145264,0.226501,0.760941,9.887680
2019-01-28 22:53:54:5354,-0.023804,0.079086,-0.145264,0.161880,0.839905,9.715408
2019-01-28 22:53:54:5354,-0.023804,0.079086,-0.145264,0.165482,0.932037,9.614914
2019-01-28 22:53:54:5354,-0.023804,0.079086,-0.145264,0.161880,0.924850,9.631653
2019-01-28 22:53:54:5354,-0.023804,0.079086,-0.145264,0.135574,0.851868,9.672333
2019-01-28 22:53:54:5354,-0.023804,0.079086,-0.145264,0.091293,0.777695,9.732162
2019-01-28 22:53:54:5354,-0.023804,0.079086,-0.145264,0.139160,0.716675,9.863770
2019-01-28 22:53:54:5354,-0.023804,0.079086,-0.145264,0.164276,0.702316,9.835052
2019-01-28 22:53:54:5354,-0.023804,0.079086,-0.145264,0.159485,0.689163,9.817093
2019-01-28 22:53:54:5354,-0.023804,0.079086,-0.145264,0.153519,0.658051,9.807526
2019-01-28 22:53:54:5354,-0.023804,0.079086,-0.145264,0.222900,0.603012,9.844620
2019-01-28 22:53:54:5354,-0.023804,0.079086,-0.145264,0.277939,0.620956,9.912811
2019-01-28 22:53:54:5354,-0.023804,0.079086,-0.145264,0.134369,0.656860,9.815903
2019-01-28 22:53:54:5354,-0.023804,0.079086,-0.145264,-0.009201,0.756165,9.619690
2019-01-28 22:53:54:5354,-0.023804,0.079086,-0.145264,-0.010406,0.802811,9.528763
2019-01-28 22:53:54:5354,-0.023804,0.079086,-0.145264,0.145142,0.722656,9.684296
2019-01-28 22:53:54:5354,-0.023804,0.079086,-0.145264,0.185806,0.622162,9.850601
2019-01-28 22:53:54:5354,-0.023804,0.079086,-0.145264,0.002762,0.593445,8.627869
2019-01-28 22:53:54:5354,-0.023804,0.079086,-0.145264,0.074554,0.777695,10.422485
2019-01-28 22:53:54:5354,-0.023804,0.079086,-0.145264,-0.073807,0.824356,9.931946
2019-01-28 22:53:54:5354,-0.023804,0.079086,-0.145264,-0.226959,0.899734,9.801544
2019-01-28 22:53:54:5354,-0.023804,0.079086,-0.145264,-0.078598,0.831528,9.782410
2019-01-28 22:53:54:5354,-0.023804,0.079086,-0.145264,0.213333,0.731033,9.570648
2019-01-28 22:53:54:5354,-0.023804,0.079086,-0.145264,0.257599,0.726242,9.630463
2019-01-28 22:53:54:5354,-0.023804,0.079086,-0.145264,0.195389,0.738205,9.802750
2019-01-28 22:53:54:5354,-0.023804,0.079086,-0.145264,0.182220,0.709503,9.841034
2019-01-28 22:53:54:5354,-0.023804,0.079086,-0.145264,0.173859,0.751373,9.778809
2019-01-28 22:53:54:5354,-0.023804,0.079086,-0.145264,0.250427,0.778885,9.723785
2019-01-28 22:53:54:5354,-0.023804,0.079086,-0.145264,0.177444,0.814774,9.717804
2019-01-28 22:53:54:5354,-0.023804,0.079086,-0.145264,0.112839,0.782471,9.690277
2019-01-28 22:53:54:5354,-0.023804,0.079086,-0.145264,0.279129,0.722656,9.662766
2019-01-28 22:53:54:5354,-0.023804,0.079086,-0.145264,0.353317,0.737015,9.685501
2019-01-28 22:53:54:5354,-0.023804,0.079086,-0.145264,0.285126,0.812393,9.739334
2019-01-28 22:53:54:5354,-0.023804,0.079086,-0.145264,0.086517,0.800415,9.714203
2019-01-28 22:53:54:5354,-0.023804,0.079086,-0.145264,0.088913,0.770508,9.692673
2019-01-28 22:53:54:5354,-0.023804,0.079086,-0.145264,0.367676,0.707108,9.777618
2019-01-28 22:53:54:5354,-0.023804,0.079086,-0.145264,0.522003,0.708298,9.693878
2019-01-28 22:53:54:5354,-0.023804,0.079086,-0.145264,0.484924,0.707108,9.582611
2019-01-28 22:53:54:5354,-0.023804,0.079086,-0.145264,0.277939,0.710693,9.586197
2019-01-28 22:53:54:5354,-0.023804,0.079086,-0.145264,0.121216,0.782486,9.630463
2019-01-28 22:53:54:5354,-0.023804,0.079086,-0.145264,0.049423,0.826752,9.647202
2019-01-28 22:53:54:5354,-0.023804,0.079086,-0.145264,0.190598,0.769318,9.707031
2019-01-28 22:53:54:5354,-0.023804,0.079086,-0.145264,0.244446,0.766922,9.720184
2019-01-28 22:53:54:5354,-0.023804,0.079086,-0.145264,0.334167,0.794449,9.862564
2019-01-28 22:53:54:5354,-0.023804,0.079086,-0.145264,0.354507,0.794449,9.793167
2019-01-28 22:53:54:5354,-0.023804,0.079086,-0.145264,0.367676,0.961945,9.906830
2019-01-28 22:53:54:5354,-0.023804,0.079086,-0.145264,0.519608,0.905716,9.842224
2019-01-28 22:53:54:5354,-0.023804,0.079086,-0.145264,0.427490,0.899719,9.794373
2019-01-28 22:53:54:5354,-0.023804,0.079086,-0.145264,0.395187,0.857849,9.751297
2019-01-28 22:53:54:5354,-0.023804,0.079086,-0.145264,-0.134827,0.903320,10.171234
2019-01-28 22:53:54:5354,-0.023804,0.079086,-0.145264,-0.045105,0.854263,9.906830
2019-01-28 22:53:54:5354,-0.023804,0.079086,-0.145264,0.234879,0.793243,9.628067
2019-01-28 22:53:54:5354,-0.023804,0.079086,-0.145264,0.376053,0.762146,9.496460
2019-01-28 22:53:54:5354,-0.023804,0.079086,-0.145264,0.409546,0.771713,9.466553
2019-01-28 22:53:54:5354,-0.023804,0.079086,-0.145264,0.338959,0.748978,9.565857
2019-01-28 22:53:54:5354,-0.023804,0.079086,-0.145264,0.305450,0.821960,9.646011
2019-01-28 22:53:54:5354,-0.023804,0.079086,-0.145264,0.164276,0.887772,9.667557
2019-01-28 22:53:54:5354,-0.023804,0.079086,-0.145264,0.103256,0.903320,9.668747
2019-01-28 22:53:54:5354,-0.023804,0.079086,-0.145264,0.204956,0.910492,9.689087
2019-01-28 22:53:54:5354,-0.023804,0.079086,-0.145264,0.374847,0.891357,9.692673
2019-01-28 22:53:54:5354,-0.023804,0.079086,-0.145264,0.440643,0.872208,9.667557
2019-01-28 22:53:54:5354,-0.023804,0.079086,-0.145264,0.500473,0.845886,9.662766
2019-01-28 22:53:54:5354,-0.023804,0.079086,-0.145264,0.459793,0.798035,9.669937
2019-01-28 22:53:54:5354,-0.023804,0.079086,-0.145264,0.383224,0.769318,9.784805
2019-01-28 22:53:54:5354,-0.023804,0.079086,-0.145264,0.402374,0.751373,9.892471
2019-01-28 22:53:54:5354,-0.023804,0.079086,-0.145264,0.293488,0.778900,9.750107
2019-01-28 22:53:54:5354,-0.023804,0.079086,-0.145264,0.210938,0.793243,9.674728
2019-01-28 22:53:54:5354,-0.023804,0.079086,-0.145264,0.283920,0.742996,9.659180
2019-01-28 22:53:54:5354,-0.023804,0.079086,-0.145264,0.358093,0.686768,9.656784
2019-01-28 22:53:54:5354,-0.023804,0.079086,-0.145264,0.326996,0.698730,9.692673
2019-01-28 22:53:54:5354,-0.023804,0.079086,-0.145264,0.209747,0.766922,9.757278
2019-01-28 22:53:54:5354,-0.023804,0.079086,-0.145264,0.032669,0.861450,9.732147
2019-01-28 22:53:54:5354,-0.023804,0.079086,-0.145264,-0.071426,0.967926,9.713013
2019-01-28 22:53:54:5354,-0.023804,0.079086,-0.145264,-0.041504,0.927246,9.695068
2019-01-28 22:53:54:5354,-0.023804,0.079086,-0.145264,0.154709,0.833923,9.768051
2019-01-28 22:53:54:5354,-0.023804,0.079086,-0.145264,0.141541,0.799225,9.689087
2019-01-28 22:53:55:5355,-0.023804,0.079086,-0.145264,0.131973,0.808792,9.655594
2019-01-28 22:53:55:5355,-0.023804,0.079086,-0.145264,0.183426,0.798035,9.684296
2019-01-28 22:53:55:5355,-0.023804,0.079086,-0.145264,0.293488,0.756165,9.760864
2019-01-28 22:53:55:5355,-0.023804,0.079086,-0.145264,0.245636,0.750183,9.735748
2019-01-28 22:53:55:5355,-0.023804,0.079086,-0.145264,0.152313,0.760941,9.827866
2019-01-28 22:53:55:5355,-0.023804,0.079086,-0.145264,0.166672,0.770508,9.850601
2019-01-28 22:53:55:5355,-0.023804,0.079086,-0.145264,0.183426,0.662842,9.973831
2019-01-28 22:53:55:5355,-0.023804,0.079086,-0.145264,0.185806,0.848282,9.052582
2019-01-28 22:53:55:5355,-0.023804,0.079086,-0.145264,0.100876,0.841095,8.806122
2019-01-28 22:53:55:5355,-0.023804,0.079086,-0.145264,0.057800,1.013382,9.504837
2019-01-28 22:53:55:5355,-0.023804,0.079086,-0.145264,-0.042709,0.774094,10.484695
2019-01-28 22:53:55:5355,-0.023804,0.079086,-0.145264,0.136765,0.685562,10.715607
2019-01-28 22:53:55:5355,-0.023804,0.079086,-0.145264,0.051819,0.744202,10.372238
2019-01-28 22:53:55:5355,-0.023804,0.079086,-0.145264,0.037460,0.815979,9.904434
2019-01-28 22:53:55:5355,-0.023804,0.079086,-0.145264,0.198975,0.884171,9.693863
2019-01-28 22:53:55:5355,-0.023804,0.079086,-0.145264,0.259995,0.966721,9.539536
2019-01-28 22:53:55:5355,-0.023804,0.079086,-0.145264,0.184616,0.970322,9.388794
2019-01-28 22:53:55:5355,-0.023804,0.079086,-0.145264,0.084122,0.933228,9.445023
2019-01-28 22:53:55:5355,-0.023804,0.079086,-0.145264,0.157104,0.890152,9.605331
2019-01-28 22:53:55:5355,-0.023804,0.079086,-0.145264,0.206161,0.826752,9.696259
2019-01-28 22:53:55:5355,-0.023804,0.079086,-0.145264,0.161896,0.780075,9.690277
2019-01-28 22:53:55:5355,-0.023804,0.079086,-0.145264,0.213333,0.841095,9.697464
2019-01-28 22:53:55:5355,-0.023804,0.079086,-0.145264,-0.011597,0.972702,9.687897
2019-01-28 22:53:55:5355,-0.023804,0.079086,-0.145264,-0.244904,1.032532,9.506042
2019-01-28 22:53:55:5355,-0.023804,0.079086,-0.145264,0.087708,0.993057,9.107635
2019-01-28 22:53:55:5355,-0.023804,0.079086,-0.145264,0.354507,0.815979,8.698456
2019-01-28 22:53:55:5355,-0.023804,0.079086,-0.145264,0.730179,0.625748,9.163849
2019-01-28 22:53:55:5355,-0.023804,0.079086,-0.145264,0.058990,0.163940,9.686691
2019-01-28 22:53:55:5355,-0.023804,0.079086,-0.145264,0.538757,0.892548,9.915207
2019-01-28 22:53:55:5355,-0.023804,0.079086,-0.145264,0.982620,0.928436,10.134155
2019-01-28 22:53:55:5355,-0.023804,0.079086,-0.145264,0.541153,1.010986,10.522980
2019-01-28 22:53:55:5355,-0.023804,0.079086,-0.145264,-0.618179,0.626953,10.776627
2019-01-28 22:53:55:5355,-0.023804,0.079086,-0.145264,-0.566742,0.134033,10.025269
2019-01-28 22:53:55:5355,-0.023804,0.079086,-0.145264,0.374847,-0.007156,10.182007
2019-01-28 22:53:55:5355,-0.023804,0.079086,-0.145264,0.147537,0.540802,9.474930
2019-01-28 22:53:55:5355,-0.023804,0.079086,-0.145264,-0.219772,0.046677,9.459381
2019-01-28 22:53:55:5355,-0.023804,0.079086,-0.145264,-0.863449,-1.470367,9.770447
2019-01-28 22:53:55:5355,-0.023804,0.079086,-0.145264,0.673950,1.707306,9.415100
2019-01-28 22:53:55:5355,-0.023804,0.079086,-0.145264,0.690704,1.635513,9.526367
2019-01-28 22:53:55:5355,-0.023804,0.079086,-0.145264,-0.103729,-0.186630,9.868546
2019-01-28 22:53:55:5355,-0.023804,0.079086,-0.145264,0.192993,0.073013,10.026474
2019-01-28 22:53:55:5355,-0.023804,0.079086,-0.145264,0.341354,0.613785,10.004929
2019-01-28 22:53:55:5355,-0.023804,0.079086,-0.145264,0.449020,0.295532,9.949905
2019-01-28 22:53:55:5355,-0.023804,0.079086,-0.145264,0.148727,-0.434280,9.832657
2019-01-28 22:53:55:5355,-0.023804,0.079086,-0.145264,0.367661,0.238113,9.492874
2019-01-28 22:53:55:5355,-0.023804,0.079086,-0.145264,0.020706,-0.368484,9.586197
2019-01-28 22:53:55:5355,-0.023804,0.079086,-0.145264,0.088913,0.480988,9.657974
2019-01-28 22:53:55:5355,-0.023804,0.079086,-0.145264,0.313828,1.062439,9.215302
2019-01-28 22:53:55:5355,-0.022461,-0.271225,-0.101776,0.313828,1.062439,9.215302
2019-01-28 22:53:55:5355,-0.022461,-0.271225,-0.101776,0.629684,0.866226,9.936737
2019-01-28 22:53:55:5355,-0.022461,-0.271225,-0.101776,0.809143,0.041901,10.673737
2019-01-28 22:53:55:5355,-0.022461,-0.271225,-0.101776,0.617722,-0.025116,10.048004
2019-01-28 22:53:55:5355,-0.022461,-0.271225,-0.101776,0.688309,0.952377,9.445007
2019-01-28 22:53:55:5355,-0.022461,-0.271225,-0.101776,0.859390,0.485764,9.529953
2019-01-28 22:53:55:5355,-0.022461,-0.271225,-0.101776,0.876144,0.147186,9.467743
2019-01-28 22:53:55:5355,-0.022461,-0.271225,-0.101776,0.459793,0.229736,9.702240
2019-01-28 22:53:55:5355,-0.022461,-0.271225,-0.101776,0.956299,0.543198,9.881699
2019-01-28 22:53:55:5355,-0.022461,-0.271225,-0.101776,1.016129,0.022766,10.292068
2019-01-28 22:53:55:5355,-0.022461,-0.271225,-0.101776,0.353317,-0.399582,9.954681
2019-01-28 22:53:55:5355,-0.027588,-0.004227,0.061020,0.353317,-0.399582,9.954681
2019-01-28 22:53:55:5355,-0.027588,-0.004227,0.061020,0.348526,-0.717834,9.422287
2019-01-28 22:53:55:5355,-0.027588,-0.004227,0.061020,1.671768,-0.313446,9.105225
2019-01-28 22:53:55:5355,-0.027588,-0.004227,0.061020,1.796188,0.098129,9.655579
2019-01-28 22:53:55:5355,-0.027588,-0.004227,0.061020,0.165482,0.569519,10.013321
2019-01-28 22:53:55:5355,-0.027588,-0.004227,0.061020,-0.579895,0.686768,10.757477
2019-01-28 22:53:55:5355,-0.027588,-0.004227,0.061020,-0.750977,0.647278,10.932159
2019-01-28 22:53:55:5355,-0.027588,-0.004227,0.061020,-0.106110,0.442703,10.834045
2019-01-28 22:53:55:5355,-0.027588,-0.004227,0.061020,0.585419,0.196228,10.330353
2019-01-28 22:53:55:5355,-0.027588,-0.004227,0.061020,0.352112,0.368515,9.656784
2019-01-28 22:53:55:5355,0.237091,-0.032333,-0.115204,0.352112,0.368515,9.656784
2019-01-28 22:53:55:5355,0.237091,-0.032333,-0.115204,0.525589,0.478592,9.557480
2019-01-28 22:53:55:5355,0.237091,-0.032333,-0.115204,0.450226,1.265823,9.845810
2019-01-28 22:53:55:5355,0.237091,-0.032333,-0.115204,0.895279,0.447479,8.937744
2019-01-28 22:53:55:5355,0.237091,-0.032333,-0.115204,0.889297,1.273010,8.520187
2019-01-28 22:53:55:5355,0.237091,-0.032333,-0.115204,0.276733,2.258850,8.468750
2019-01-28 22:53:55:5355,0.237091,-0.032333,-0.115204,0.830688,1.410599,8.186386
2019-01-28 22:53:55:5355,0.237091,-0.032333,-0.115204,0.892899,1.188065,8.547714
2019-01-28 22:53:55:5355,0.237091,-0.032333,-0.115204,1.415726,1.379486,9.010727
2019-01-28 22:53:55:5355,0.237091,-0.032333,-0.115204,0.687119,0.965530,9.711807
2019-01-28 22:53:55:5355,0.237091,-0.032333,-0.115204,0.620117,0.890152,10.232254
2019-01-28 22:53:55:5355,-0.096680,-0.141983,-0.105438,0.620117,0.890152,10.232254
2019-01-28 22:53:55:5355,-0.096680,-0.141983,-0.105438,1.500671,0.362534,9.879318
2019-01-28 22:53:55:5355,-0.096680,-0.141983,-0.105438,1.188416,0.896149,9.836243
2019-01-28 22:53:55:5355,-0.096680,-0.141983,-0.105438,1.159698,0.009598,9.228470
2019-01-28 22:53:55:5355,-0.096680,-0.141983,-0.105438,0.891693,0.295547,10.101837
2019-01-28 22:53:55:5355,-0.096680,-0.141983,-0.105438,1.001770,0.923660,10.453598
2019-01-28 22:53:55:5355,-0.096680,-0.141983,-0.105438,0.204956,0.394836,10.804138
2019-01-28 22:53:55:5355,-0.096680,-0.141983,-0.105438,0.342545,0.963135,10.122192
2019-01-28 22:53:55:5355,-0.096680,-0.141983,-0.105438,0.114029,1.015778,9.691483
2019-01-28 22:53:55:5355,-0.096680,-0.141983,-0.105438,0.032669,0.758560,9.545517
2019-01-28 22:53:55:5355,-0.064728,0.172180,-0.017776,0.032669,0.758560,9.545517
2019-01-28 22:53:55:5355,-0.064728,0.172180,-0.017776,0.225296,0.880585,9.439041
2019-01-28 22:53:55:5355,-0.064728,0.172180,-0.017776,0.382034,0.571915,9.416306
2019-01-28 22:53:55:5355,-0.064728,0.172180,-0.017776,0.548325,0.589859,9.648407
2019-01-28 22:53:55:5355,-0.064728,0.172180,-0.017776,0.566269,0.555161,9.894867
2019-01-28 22:53:55:5355,-0.064728,0.172180,-0.017776,0.443039,0.635315,9.841034
2019-01-28 22:53:55:5355,-0.064728,0.172180,-0.017776,0.545929,0.763336,9.815903
2019-01-28 22:53:55:5355,-0.064728,0.172180,-0.017776,0.605759,0.702316,9.868546
2019-01-28 22:53:55:5355,-0.064728,0.172180,-0.017776,0.600967,0.702316,9.797958
2019-01-28 22:53:55:5355,-0.064728,0.172180,-0.017776,0.511246,0.585068,9.874527
2019-01-28 22:53:55:5355,-0.064728,0.172180,-0.017776,0.489700,0.498932,10.012115
2019-01-28 22:53:55:5355,0.058533,0.056244,0.161011,0.489700,0.498932,10.012115
2019-01-28 22:53:55:5355,0.058533,0.056244,0.161011,0.723007,0.191452,9.961868
2019-01-28 22:53:55:5355,0.058533,0.056244,0.161011,0.998184,0.113693,9.760864
2019-01-28 22:53:55:5355,0.058533,0.056244,0.161011,0.890503,0.238113,9.626877
2019-01-28 22:53:55:5355,0.058533,0.056244,0.161011,0.542343,0.402023,9.569443
2019-01-28 22:53:55:5355,0.058533,0.056244,0.161011,0.354507,0.479782,9.590988
2019-01-28 22:53:55:5355,0.058533,0.056244,0.161011,0.368866,0.513290,9.726166
2019-01-28 22:53:55:5355,0.058533,0.056244,0.161011,0.402374,0.567123,9.742920
2019-01-28 22:53:55:5355,0.058533,0.056244,0.161011,0.326996,0.581482,9.696259
2019-01-28 22:53:55:5355,0.058533,0.056244,0.161011,0.325790,0.637711,9.634048
2019-01-28 22:53:55:5355,0.011383,0.061615,0.028152,0.325790,0.637711,9.634048
2019-01-28 22:53:55:5355,0.011383,0.061615,0.028152,0.277939,0.611389,9.720184
2019-01-28 22:53:55:5355,0.011383,0.061615,0.028152,0.352112,0.524063,9.863754
2019-01-28 22:53:55:5355,0.011383,0.061615,0.028152,0.408356,0.539612,9.695068
2019-01-28 22:53:55:5355,0.011383,0.061615,0.028152,0.257599,0.530045,9.752502
2019-01-28 22:53:55:5355,0.011383,0.061615,0.028152,0.158295,0.488159,9.624481
2019-01-28 22:53:55:5355,0.011383,0.061615,0.028152,0.154709,0.342194,9.506027
2019-01-28 22:53:55:5355,0.011383,0.061615,0.028152,0.317413,0.361343,9.641235
2019-01-28 22:53:55:5355,0.011383,0.061615,0.028152,0.397583,0.398438,9.555084
2019-01-28 22:53:55:5355,0.011383,0.061615,0.028152,0.456207,0.473801,9.337341
2019-01-28 22:53:55:5355,0.011383,0.061615,0.028152,0.477737,0.497726,9.283508
2019-01-28 22:53:55:5355,-0.045364,0.095276,0.010208,0.477737,0.497726,9.283508
2019-01-28 22:53:55:5355,-0.045364,0.095276,0.010208,0.523193,0.502518,9.620880
2019-01-28 22:53:55:5355,-0.045364,0.095276,0.010208,0.507660,0.550369,9.673538
2019-01-28 22:53:55:5355,-0.045364,0.095276,0.010208,0.432281,0.558746,9.616104
2019-01-28 22:53:55:5355,-0.045364,0.095276,0.010208,0.337753,0.453461,9.757278
2019-01-28 22:53:55:5355,-0.045364,0.095276,0.010208,0.332977,0.382874,9.947510
2019-01-28 22:53:55:5355,-0.045364,0.095276,0.010208,0.346130,0.396042,10.010925
2019-01-28 22:53:55:5355,-0.045364,0.095276,0.010208,0.212143,0.385269,10.020493
2019-01-28 22:53:55:5355,-0.045364,0.095276,0.010208,0.140350,0.411591,9.917603
2019-01-28 22:53:55:5355,-0.045364,0.095276,0.010208,0.069763,0.553970,9.923584
2019-01-28 22:53:56:5356,-0.028687,-0.020721,-0.001892,0.069763,0.553970,9.923584
2019-01-28 22:53:56:5356,-0.028687,-0.020721,-0.001892,-0.058258,0.522858,9.824280
2019-01-28 22:53:56:5356,-0.028687,-0.020721,-0.001892,0.024292,0.525253,9.651993
2019-01-28 22:53:56:5356,-0.028687,-0.020721,-0.001892,0.140350,0.580292,9.338531
2019-01-28 22:53:56:5356,-0.028687,-0.020721,-0.001892,0.214523,0.591049,9.484497
2019-01-28 22:53:56:5356,-0.028687,-0.020721,-0.001892,0.285126,0.526443,9.745316
2019-01-28 22:53:56:5356,-0.028687,-0.020721,-0.001892,0.432281,0.423553,9.952286
2019-01-28 22:53:56:5356,-0.028687,-0.020721,-0.001892,0.439453,0.409195,10.058777
2019-01-28 22:53:56:5356,-0.028687,-0.020721,-0.001892,0.379639,0.445099,10.251389
2019-01-28 22:53:56:5356,-0.028687,-0.020721,-0.001892,0.427490,0.502518,10.071930
2019-01-28 22:53:56:5356,-0.028687,-0.020721,-0.001892,0.392792,0.500122,9.823090
2019-01-28 22:53:56:5356,-0.021912,0.004562,-0.082596,0.392792,0.500122,9.823090
2019-01-28 22:53:56:5356,-0.021912,0.004562,-0.082596,0.367661,0.415192,9.721390
2019-01-28 22:53:56:5356,-0.021912,0.004562,-0.082596,0.404755,0.308701,9.764450
2019-01-28 22:53:56:5356,-0.021912,0.004562,-0.082596,0.344940,0.293137,9.714203
2019-01-28 22:53:56:5356,-0.021912,0.004562,-0.082596,0.262390,0.360153,9.654388
2019-01-28 22:53:56:5356,-0.021912,0.004562,-0.082596,0.221710,0.337418,9.647202
2019-01-28 22:53:56:5356,-0.021912,0.004562,-0.082596,0.213333,0.312286,9.617294
2019-01-28 22:53:56:5356,-0.021912,0.004562,-0.082596,0.204956,0.320663,9.513214
2019-01-28 22:53:56:5356,-0.021912,0.004562,-0.082596,0.184616,0.339798,9.453384
2019-01-28 22:53:56:5356,-0.021912,0.004562,-0.082596,0.190598,0.338608,9.397156
2019-01-28 22:53:56:5356,-0.033951,0.039078,-0.084244,0.190598,0.338608,9.397156
2019-01-28 22:53:56:5356,-0.033951,0.039078,-0.084244,0.064972,0.341003,9.214111
2019-01-28 22:53:56:5356,-0.033951,0.039078,-0.084244,-0.021164,0.238113,9.135147
2019-01-28 22:53:56:5356,-0.033951,0.039078,-0.084244,-0.049881,0.050278,9.295456
2019-01-28 22:53:56:5356,-0.033951,0.039078,-0.084244,-0.115692,-0.040665,9.479721
2019-01-28 22:53:56:5356,-0.033951,0.039078,-0.084244,-0.126450,0.037125,9.465347
2019-01-28 22:53:56:5356,-0.033951,0.039078,-0.084244,-0.205414,0.173508,9.418686
2019-01-28 22:53:56:5356,-0.033951,0.039078,-0.084244,-0.212601,0.317078,9.417496
2019-01-28 22:53:56:5356,-0.033951,0.039078,-0.084244,-0.171921,0.344589,9.643616
2019-01-28 22:53:56:5356,-0.033951,0.039078,-0.084244,-0.155167,0.184265,9.996567
2019-01-28 22:53:56:5356,-0.033951,0.039078,-0.084244,-0.009201,-0.049042,10.661774
2019-01-28 22:53:56:5356,-0.184708,-0.099945,0.063644,-0.009201,-0.049042,10.661774
2019-01-28 22:53:56:5356,-0.184708,-0.099945,0.063644,0.271957,-0.175858,11.324585
2019-01-28 22:53:56:5356,-0.184708,-0.099945,0.063644,0.399963,-0.234482,11.623688
2019-01-28 22:53:56:5356,-0.184708,-0.099945,0.063644,0.453812,-0.028687,11.660767
2019-01-28 22:53:56:5356,-0.184708,-0.099945,0.063644,0.426300,0.308701,11.343719
2019-01-28 22:53:56:5356,-0.184708,-0.099945,0.063644,0.309052,0.619766,10.715607
2019-01-28 22:53:56:5356,-0.184708,-0.099945,0.063644,0.307846,0.680786,10.105438
2019-01-28 22:53:56:5356,-0.184708,-0.099945,0.063644,0.364090,0.626953,9.659180
2019-01-28 22:53:56:5356,-0.184708,-0.099945,0.063644,0.379639,0.463043,9.295456
2019-01-28 22:53:56:5356,-0.184708,-0.099945,0.063644,0.456207,0.332626,9.123184
2019-01-28 22:53:56:5356,0.238007,-0.014542,0.044403,0.456207,0.332626,9.123184
2019-01-28 22:53:56:5356,0.238007,-0.014542,0.044403,0.555496,0.329041,9.013107
2019-01-28 22:53:56:5356,0.238007,-0.014542,0.044403,0.531586,0.419968,8.924576
2019-01-28 22:53:56:5356,0.238007,-0.014542,0.044403,0.431076,0.527649,8.919785
2019-01-28 22:53:56:5356,0.238007,-0.014542,0.044403,0.335373,0.626953,9.031052
2019-01-28 22:53:56:5356,0.238007,-0.014542,0.044403,0.265976,0.679596,9.430649
2019-01-28 22:53:56:5356,0.238007,-0.014542,0.044403,0.280334,0.689163,9.766846
2019-01-28 22:53:56:5356,0.238007,-0.014542,0.044403,0.204956,0.778885,10.172440
2019-01-28 22:53:56:5356,0.238007,-0.014542,0.044403,0.051819,0.898529,10.371033
2019-01-28 22:53:56:5356,0.238007,-0.014542,0.044403,-0.052277,0.988266,10.292068
2019-01-28 22:53:56:5356,0.238007,-0.014542,0.044403,-0.034332,1.061249,10.026474
2019-01-28 22:53:56:5356,0.141235,0.000916,-0.009537,-0.034332,1.061249,10.026474
2019-01-28 22:53:57:5357,0.141235,0.000916,-0.009537,0.078140,1.109100,9.766846
2019-01-28 22:53:57:5357,0.141235,0.000916,-0.009537,0.159500,1.150970,9.557480
2019-01-28 22:53:57:5357,0.141235,0.000916,-0.009537,0.140350,1.183273,9.350494
2019-01-28 22:53:57:5357,0.141235,0.000916,-0.009537,0.157104,1.091156,9.434250
2019-01-28 22:53:57:5357,0.141235,0.000916,-0.009537,0.204956,1.002625,9.634048
2019-01-28 22:53:57:5357,0.141235,0.000916,-0.009537,0.255203,0.994247,9.769241
2019-01-28 22:53:57:5357,0.141235,0.000916,-0.009537,0.261185,0.977493,9.903244
2019-01-28 22:53:57:5357,0.141235,0.000916,-0.009537,0.274353,0.936813,10.006134
2019-01-28 22:53:57:5357,0.141235,0.000916,-0.009537,0.353317,0.991852,9.976227
2019-01-28 22:53:57:5357,0.116196,-0.028656,0.026138,0.353317,0.991852,9.976227
2019-01-28 22:53:57:5357,0.116196,-0.028656,0.026138,0.422714,1.141403,9.751297
2019-01-28 22:53:57:5357,0.116196,-0.028656,0.026138,0.332977,1.275391,9.437836
2019-01-28 22:53:57:5357,0.116196,-0.028656,0.026138,0.236069,1.374710,9.287094
2019-01-28 22:53:57:5357,0.116196,-0.028656,0.026138,0.204956,1.318466,9.300247
2019-01-28 22:53:57:5357,0.116196,-0.028656,0.026138,0.378433,1.335220,9.333755
2019-01-28 22:53:57:5357,0.116196,-0.028656,0.026138,0.487320,1.281387,9.217697
2019-01-28 22:53:57:5357,0.116196,-0.028656,0.026138,0.551926,1.158157,9.318192
2019-01-28 22:53:57:5357,0.116196,-0.028656,0.026138,0.608154,0.970306,9.555084
2019-01-28 22:53:57:5357,0.116196,-0.028656,0.026138,0.661987,0.882980,9.675919
2019-01-28 22:53:57:5357,0.116196,-0.028656,0.026138,0.556702,0.902115,9.675919
2019-01-28 22:53:57:5357,-0.007614,-0.016068,-0.008118,0.556702,0.902115,9.675919
2019-01-28 22:53:57:5357,-0.007614,-0.016068,-0.008118,0.415527,0.966721,9.690277
2019-01-28 22:53:57:5357,-0.007614,-0.016068,-0.008118,0.283920,0.988266,9.681900
2019-01-28 22:53:57:5357,-0.007614,-0.016068,-0.008118,0.213333,0.954758,9.687881
2019-01-28 22:53:57:5357,-0.007614,-0.016068,-0.008118,0.148727,0.890152,9.826675
2019-01-28 22:53:57:5357,-0.007614,-0.016068,-0.008118,0.117615,0.856659,9.857773
2019-01-28 22:53:57:5357,-0.007614,-0.016068,-0.008118,0.041046,0.826752,9.787186
2019-01-28 22:53:57:5357,-0.007614,-0.016068,-0.008118,0.120010,0.890152,9.573029
2019-01-28 22:53:57:5357,-0.007614,-0.016068,-0.008118,0.092499,0.951172,9.224884
2019-01-28 22:53:57:5357,-0.007614,-0.016068,-0.008118,0.058990,0.954758,9.130356
2019-01-28 22:53:57:5357,-0.101318,-0.065491,0.061752,0.058990,0.954758,9.130356
2019-01-28 22:53:57:5357,-0.101318,-0.065491,0.061752,0.160690,0.978683,9.375626
2019-01-28 22:53:57:5357,-0.101318,-0.065491,0.061752,0.216919,0.941605,9.641220
2019-01-28 22:53:57:5357,-0.101318,-0.065491,0.061752,0.287506,0.965530,9.777618
2019-01-28 22:53:57:5357,-0.101318,-0.065491,0.061752,0.352112,0.900925,9.896057
2019-01-28 22:53:57:5357,-0.101318,-0.065491,0.061752,0.551926,0.869812,10.249008
2019-01-28 22:53:57:5357,-0.101318,-0.065491,0.061752,0.752914,0.821960,10.403351
2019-01-28 22:53:57:5357,-0.101318,-0.065491,0.061752,0.840256,0.856659,10.385391
2019-01-28 22:53:57:5357,-0.101318,-0.065491,0.061752,0.778030,0.915283,10.160477
2019-01-28 22:53:57:5357,-0.101318,-0.065491,0.061752,0.748123,0.935623,10.036041
2019-01-28 22:53:57:5357,-0.101318,-0.065491,0.061752,0.712234,0.936813,9.940338
2019-01-28 22:53:57:5357,0.098846,0.003342,-0.024979,0.712234,0.936813,9.940338
2019-01-28 22:53:57:5357,0.098846,0.003342,-0.024979,0.583023,0.924850,9.757278
2019-01-28 22:53:57:5357,0.098846,0.003342,-0.024979,0.524399,0.879379,9.653198
2019-01-28 22:53:57:5357,0.098846,0.003342,-0.024979,0.522003,0.844696,9.593369
2019-01-28 22:53:57:5357,0.098846,0.003342,-0.024979,0.417923,0.790848,9.498856
2019-01-28 22:53:57:5357,0.098846,0.003342,-0.024979,0.277939,0.792053,9.354080
2019-01-28 22:53:57:5357,0.098846,0.003342,-0.024979,0.222900,0.855453,9.107620
2019-01-28 22:53:57:5357,0.098846,0.003342,-0.024979,0.170258,0.921265,8.913818
2019-01-28 22:53:57:5357,0.098846,0.003342,-0.024979,0.127197,0.938019,8.885101
2019-01-28 22:53:57:5357,0.098846,0.003342,-0.024979,0.233673,0.869812,9.017899
2019-01-28 22:53:57:5357,-0.146149,-0.018890,-0.023819,0.233673,0.869812,9.017899
2019-01-28 22:53:57:5357,-0.146149,-0.018890,-0.023819,0.350922,0.746582,9.309814
2019-01-28 22:53:57:5357,-0.146149,-0.018890,-0.023819,0.457397,0.606598,9.714218
2019-01-28 22:53:57:5357,-0.146149,-0.018890,-0.023819,0.505264,0.530029,10.086288
2019-01-28 22:53:57:5357,-0.146149,-0.018890,-0.023819,0.475342,0.544388,10.349503
2019-01-28 22:53:57:5357,-0.146149,-0.018890,-0.023819,0.462189,0.656845,10.418900
2019-01-28 22:53:57:5357,-0.146149,-0.018890,-0.023819,0.370056,0.831528,10.215500
2019-01-28 22:53:57:5357,-0.146149,-0.018890,-0.023819,0.353317,1.020569,9.909225
2019-01-28 22:53:57:5357,-0.146149,-0.018890,-0.023819,0.354507,1.046890,9.675934
2019-01-28 22:53:57:5357,-0.146149,-0.018890,-0.023819,0.453812,0.938019,9.600555
2019-01-28 22:53:57:5357,-0.146149,-0.018890,-0.023819,0.559097,0.812393,9.649612
2019-01-28 22:53:58:5358,-0.146149,-0.018890,-0.023819,0.580627,0.752563,9.641220
2019-01-28 22:53:58:5358,-0.146149,-0.018890,-0.023819,0.469360,0.668823,9.605331
2019-01-28 22:53:58:5358,-0.146149,-0.018890,-0.023819,0.431076,0.720261,9.613708
2019-01-28 22:53:58:5358,-0.146149,-0.018890,-0.023819,0.393997,0.708298,9.649597
2019-01-28 22:53:58:5358,-0.146149,-0.018890,-0.023819,0.488510,0.722656,9.673523
2019-01-28 22:53:58:5358,-0.146149,-0.018890,-0.023819,0.501663,0.649673,9.741730
2019-01-28 22:53:58:5358,-0.146149,-0.018890,-0.023819,0.606949,0.575500,9.763260
2019-01-28 22:53:58:5358,-0.146149,-0.018890,-0.023819,0.683517,0.498932,9.738144
2019-01-28 22:53:58:5358,-0.146149,-0.018890,-0.023819,0.712234,0.508499,9.747711
2019-01-28 22:53:58:5358,-0.040787,0.022461,0.033356,0.712234,0.508499,9.747711
2019-01-28 22:53:58:5358,-0.040787,0.022461,0.033356,0.656006,0.562347,9.764450
2019-01-28 22:53:58:5358,-0.040787,0.022461,0.033356,0.652420,0.625748,9.697449
2019-01-28 22:53:58:5358,-0.040787,0.022461,0.033356,0.537567,0.628143,9.488083
2019-01-28 22:53:58:5358,-0.040787,0.022461,0.033356,0.550720,0.527649,9.503647
2019-01-28 22:53:58:5358,-0.040787,0.022461,0.033356,0.575836,0.439117,9.671127
2019-01-28 22:53:58:5358,-0.040787,0.022461,0.033356,0.569870,0.408005,9.742920
2019-01-28 22:53:58:5358,-0.040787,0.022461,0.033356,0.496887,0.412796,9.754883
2019-01-28 22:53:58:5358,-0.040787,0.022461,0.033356,0.480133,0.409195,9.800354
2019-01-28 22:53:58:5358,-0.040787,0.022461,0.033356,0.432281,0.416382,9.839828
2019-01-28 22:53:58:5358,-0.040787,0.022461,0.033356,0.393997,0.447495,9.843414
2019-01-28 22:53:58:5358,-0.073273,0.015930,-0.000488,0.393997,0.447495,9.843414
2019-01-28 22:53:58:5358,-0.073273,0.015930,-0.000488,0.383224,0.502518,9.794373
2019-01-28 22:53:58:5358,-0.073273,0.015930,-0.000488,0.423904,0.571915,9.669937
2019-01-28 22:53:58:5358,-0.073273,0.015930,-0.000488,0.429886,0.607803,9.523972
2019-01-28 22:53:58:5358,-0.073273,0.015930,-0.000488,0.374847,0.640106,9.498856
2019-01-28 22:53:58:5358,-0.073273,0.015930,-0.000488,0.423904,0.680786,9.619690
2019-01-28 22:53:58:5358,-0.073273,0.015930,-0.000488,0.219315,0.551575,9.819489
2019-01-28 22:53:58:5358,-0.073273,0.015930,-0.000488,0.088898,0.325439,10.110229
2019-01-28 22:53:58:5358,-0.073273,0.015930,-0.000488,0.161880,0.114883,10.131760
2019-01-28 22:53:58:5358,-0.073273,0.015930,-0.000488,0.341354,0.111282,10.025284
2019-01-28 22:53:58:5358,-0.077988,0.043655,-0.054733,0.341354,0.111282,10.025284
2019-01-28 22:53:58:5358,-0.077988,0.043655,-0.054733,0.313828,0.228531,9.886490
2019-01-28 22:53:58:5358,-0.077988,0.043655,-0.054733,0.267166,0.339813,9.707031
2019-01-28 22:53:58:5358,-0.077988,0.043655,-0.054733,0.293503,0.351776,9.666351
2019-01-28 22:53:58:5358,-0.077988,0.043655,-0.054733,0.310242,0.284775,9.795563
2019-01-28 22:53:58:5358,-0.077988,0.043655,-0.054733,0.341354,0.236923,9.850601
2019-01-28 22:53:58:5358,-0.077988,0.043655,-0.054733,0.343735,0.282379,9.768051
2019-01-28 22:53:58:5358,-0.077988,0.043655,-0.054733,0.281525,0.350571,9.803940
2019-01-28 22:53:58:5358,-0.077988,0.043655,-0.054733,0.255203,0.406815,9.794373
2019-01-28 22:53:58:5358,-0.077988,0.043655,-0.054733,0.316223,0.463028,9.584991
2019-01-28 22:53:58:5358,-0.077988,0.043655,-0.054733,0.404755,0.514481,9.290680
2019-01-28 22:53:58:5358,-0.024719,0.007858,-0.034210,0.404755,0.514481,9.290680
2019-01-28 22:53:58:5358,-0.024719,0.007858,-0.034210,0.480133,0.483383,9.211716
2019-01-28 22:53:58:5358,-0.024719,0.007858,-0.034210,0.501663,0.341003,9.502441
2019-01-28 22:53:58:5358,-0.024719,0.007858,-0.034210,0.499268,0.212982,9.718994
2019-01-28 22:53:58:5358,-0.024719,0.007858,-0.034210,0.469360,0.101730,10.069550
2019-01-28 22:53:58:5358,-0.024719,0.007858,-0.034210,0.443039,0.070618,10.432053
2019-01-28 22:53:58:5358,-0.024719,0.007858,-0.034210,0.425095,0.110092,10.339935
2019-01-28 22:53:58:5358,-0.024719,0.007858,-0.034210,0.518417,0.201035,10.031250
2019-01-28 22:53:58:5358,-0.024719,0.007858,-0.034210,0.559097,0.263229,9.848206
2019-01-28 22:53:58:5358,-0.024719,0.007858,-0.034210,0.538757,0.270416,9.738129
2019-01-28 22:53:59:5359,0.001114,-0.100616,0.038544,0.538757,0.270416,9.738129
2019-01-28 22:53:59:5359,0.001114,-0.100616,0.038544,0.457397,0.315887,9.555084
2019-01-28 22:53:59:5359,0.001114,-0.100616,0.038544,0.385620,0.373306,9.492874
2019-01-28 22:53:59:5359,0.001114,-0.100616,0.038544,0.389206,0.312286,9.650803
2019-01-28 22:53:59:5359,0.001114,-0.100616,0.038544,0.311447,0.309891,9.765656
2019-01-28 22:53:59:5359,0.001114,-0.100616,0.038544,0.277939,0.369720,9.787186
2019-01-28 22:53:59:5359,0.001114,-0.100616,0.038544,0.322205,0.327850,9.718994
2019-01-28 22:53:59:5359,0.001114,-0.100616,0.038544,0.438263,0.141205,9.852997
2019-01-28 22:53:59:5359,0.001114,-0.100616,0.038544,0.563889,0.088562,9.994171
2019-01-28 22:53:59:5359,0.001114,-0.100616,0.038544,0.639252,0.223755,9.888885
2019-01-28 22:53:59:5359,0.001114,-0.100616,0.038544,0.620117,0.412796,9.628067
2019-01-28 22:53:59:5359,0.024078,-0.006363,-0.042023,0.620117,0.412796,9.628067
2019-01-28 22:53:59:5359,0.024078,-0.006363,-0.042023,0.567474,0.418762,9.552689
2019-01-28 22:53:59:5359,0.024078,-0.006363,-0.042023,0.636856,0.302719,9.643616
2019-01-28 22:53:59:5359,0.024078,-0.006363,-0.042023,0.697876,0.263245,9.710617
2019-01-28 22:53:59:5359,0.024078,-0.006363,-0.042023,0.730179,0.351776,9.635239
2019-01-28 22:53:59:5359,0.024078,-0.006363,-0.042023,0.658401,0.418777,9.545517
2019-01-28 22:53:59:5359,0.024078,-0.006363,-0.042023,0.572266,0.399628,9.523972
2019-01-28 22:53:59:5359,0.024078,-0.006363,-0.042023,0.532776,0.350571,9.648407
2019-01-28 22:53:59:5359,0.024078,-0.006363,-0.042023,0.524399,0.346985,9.768051
2019-01-28 22:53:59:5359,0.024078,-0.006363,-0.042023,0.504059,0.367325,9.702240
2019-01-28 22:53:59:5359,-0.006638,-0.049911,0.036530,0.504059,0.367325,9.702240
2019-01-28 22:53:59:5359,-0.006638,-0.049911,0.036530,0.441849,0.355362,9.723785
2019-01-28 22:53:59:5359,-0.006638,-0.049911,0.036530,0.428680,0.308701,9.918793
2019-01-28 22:53:59:5359,-0.006638,-0.049911,0.036530,0.539948,0.271606,9.845810
2019-01-28 22:53:59:5359,-0.006638,-0.049911,0.036530,0.628479,0.207001,9.713013
2019-01-28 22:53:59:5359,-0.006638,-0.049911,0.036530,0.689499,0.156754,9.860168
2019-01-28 22:53:59:5359,-0.006638,-0.049911,0.036530,0.696686,0.226151,9.813507
2019-01-28 22:53:59:5359,-0.006638,-0.049911,0.036530,0.666763,0.343399,9.683105
2019-01-28 22:53:59:5359,-0.006638,-0.049911,0.036530,0.623703,0.360138,9.641235
2019-01-28 22:53:59:5359,-0.006638,-0.049911,0.036530,0.640457,0.350571,9.702255
2019-01-28 22:53:59:5359,-0.006638,-0.049911,0.036530,0.639252,0.362534,9.690277
2019-01-28 22:53:59:5359,0.010651,0.040054,-0.021317,0.639252,0.362534,9.690277
2019-01-28 22:53:59:5359,0.010651,0.040054,-0.021317,0.667969,0.376892,9.677124
2019-01-28 22:53:59:5359,0.010651,0.040054,-0.021317,0.723007,0.373306,9.685501
2019-01-28 22:53:59:5359,0.010651,0.040054,-0.021317,0.614136,0.388855,9.724976
2019-01-28 22:53:59:5359,0.010651,0.040054,-0.021317,0.578232,0.436722,9.772827
2019-01-28 22:53:59:5359,0.010651,0.040054,-0.021317,0.511246,0.477402,9.785995
2019-01-28 22:53:59:5359,0.010651,0.040054,-0.021317,0.455002,0.430740,9.961868
2019-01-28 22:53:59:5359,0.010651,0.040054,-0.021317,0.395187,0.397232,10.092285
2019-01-28 22:53:59:5359,0.010651,0.040054,-0.021317,0.455017,0.380493,10.177216
2019-01-28 22:53:59:5359,0.010651,0.040054,-0.021317,0.478943,0.404419,10.153290
2019-01-28 22:53:59:5359,0.193039,-0.028839,-0.016800,0.478943,0.404419,10.153290
2019-01-28 22:53:59:5359,0.193039,-0.028839,-0.016800,0.542343,0.412796,10.020493
2019-01-28 22:53:59:5359,0.193039,-0.028839,-0.016800,0.520813,0.421158,9.894867
2019-01-28 22:53:59:5359,0.193039,-0.028839,-0.016800,0.632080,0.492950,9.772827
2019-01-28 22:53:59:5359,0.193039,-0.028839,-0.016800,0.682327,0.619766,9.540726
2019-01-28 22:53:59:5359,0.193039,-0.028839,-0.016800,0.714630,0.709503,9.173431
2019-01-28 22:53:59:5359,0.193039,-0.028839,-0.016800,0.658401,0.739410,9.102844
2019-01-28 22:53:59:5359,0.193039,-0.028839,-0.016800,0.602173,0.772903,9.230865
2019-01-28 22:53:59:5359,0.193039,-0.028839,-0.016800,0.539948,0.813583,9.246414
2019-01-28 22:53:59:5359,0.193039,-0.028839,-0.016800,0.566269,0.821960,9.351700
2019-01-28 22:53:59:5359,0.193039,-0.028839,-0.016800,0.623703,0.809998,9.350494
2019-01-28 22:53:59:5359,-0.059357,-0.016922,-0.051376,0.623703,0.809998,9.350494
2019-01-28 22:53:59:5359,-0.059357,-0.016922,-0.051376,0.697876,0.776505,9.345718
2019-01-28 22:53:59:5359,-0.059357,-0.016922,-0.051376,0.720612,0.801620,9.528763
2019-01-28 22:53:59:5359,-0.059357,-0.016922,-0.051376,0.635666,0.733429,9.763260
2019-01-28 22:53:59:5359,-0.059357,-0.016922,-0.051376,0.563873,0.696335,9.891281
2019-01-28 22:53:59:5359,-0.059357,-0.016922,-0.051376,0.598572,0.690353,9.994171
2019-01-28 22:53:59:5359,-0.059357,-0.016922,-0.051376,0.688309,0.723862,9.981018
2019-01-28 22:53:59:5359,-0.059357,-0.016922,-0.051376,0.642838,0.641296,9.879318
2019-01-28 22:53:59:5359,-0.059357,-0.016922,-0.051376,0.670364,0.593445,9.721390
2019-01-28 22:53:59:5359,-0.059357,-0.016922,-0.051376,0.615326,0.592239,9.707031
2019-01-28 22:54:00:540,-0.091293,-0.008804,-0.042450,0.615326,0.592239,9.707031
2019-01-28 22:54:00:540,-0.091293,-0.008804,-0.042450,0.551910,0.570709,9.656784
2019-01-28 22:54:00:540,-0.091293,-0.008804,-0.042450,0.548325,0.497726,9.483307
2019-01-28 22:54:00:540,-0.091293,-0.008804,-0.042450,0.517227,0.454666,9.532349
2019-01-28 22:54:00:540,-0.091293,-0.008804,-0.042450,0.555511,0.459457,9.696259
2019-01-28 22:54:00:540,-0.091293,-0.008804,-0.042450,0.559097,0.408005,9.744110
2019-01-28 22:54:00:540,-0.091293,-0.008804,-0.042450,0.673950,0.375702,9.807526
2019-01-28 22:54:00:540,-0.091293,-0.008804,-0.042450,0.684723,0.440308,9.799149
2019-01-28 22:54:00:540,-0.091293,-0.008804,-0.042450,0.665573,0.555161,9.784805
2019-01-28 22:54:00:540,-0.091293,-0.008804,-0.042450,0.560287,0.575500,9.805130
2019-01-28 22:54:00:540,-0.091293,-0.008804,-0.042450,0.646439,0.544388,9.783600
2019-01-28 22:54:00:540,-0.106201,-0.079544,0.022903,0.646439,0.544388,9.783600
2019-01-28 22:54:00:540,-0.106201,-0.079544,0.022903,0.754105,0.542007,9.669937
2019-01-28 22:54:00:540,-0.106201,-0.079544,0.022903,0.691895,0.547989,9.607727
2019-01-28 22:54:00:540,-0.106201,-0.079544,0.022903,0.709854,0.547989,9.577820
2019-01-28 22:54:00:540,-0.106201,-0.079544,0.022903,0.847427,0.500122,9.510818
2019-01-28 22:54:00:540,-0.106201,-0.079544,0.022903,0.977844,0.332626,9.695068
2019-01-28 22:54:00:540,-0.106201,-0.079544,0.022903,0.977844,0.153168,9.923584
2019-01-28 22:54:00:540,-0.106201,-0.079544,0.022903,0.977844,0.114883,9.949905
2019-01-28 22:54:00:540,-0.106201,-0.079544,0.022903,0.896484,0.172302,10.009720
2019-01-28 22:54:00:540,-0.106201,-0.079544,0.022903,0.884521,0.271606,9.817108
2019-01-28 22:54:00:540,-0.055313,-0.012283,-0.014236,0.884521,0.271606,9.817108
2019-01-28 22:54:00:540,-0.055313,-0.012283,-0.014236,0.857010,0.350571,9.614914
2019-01-28 22:54:00:540,-0.055313,-0.012283,-0.014236,0.829483,0.404419,9.473724
2019-01-28 22:54:00:540,-0.055313,-0.012283,-0.014236,0.855804,0.381683,9.488083
2019-01-28 22:54:00:540,-0.055313,-0.012283,-0.014236,0.852219,0.312286,9.485687
2019-01-28 22:54:00:540,-0.055313,-0.012283,-0.014236,0.950317,0.209396,9.559875
2019-01-28 22:54:00:540,-0.055313,-0.012283,-0.014236,0.949127,0.254868,9.512024
2019-01-28 22:54:00:540,-0.055313,-0.012283,-0.014236,0.846237,0.246490,9.624481
2019-01-28 22:54:00:540,-0.055313,-0.012283,-0.014236,0.866577,0.172318,9.665146
2019-01-28 22:54:00:540,-0.055313,-0.012283,-0.014236,0.833069,0.143600,9.740524
2019-01-28 22:54:00:540,-0.055313,-0.012283,-0.014236,0.787613,0.193848,9.751297
2019-01-28 22:54:00:540,-0.127029,0.009155,-0.080688,0.787613,0.193848,9.751297
2019-01-28 22:54:00:540,-0.127029,0.009155,-0.080688,0.711044,0.279984,9.820694
2019-01-28 22:54:00:540,-0.127029,0.009155,-0.080688,0.687103,0.335022,9.824280
2019-01-28 22:54:00:540,-0.127029,0.009155,-0.080688,0.681137,0.361343,9.868546
2019-01-28 22:54:00:540,-0.127029,0.009155,-0.080688,0.646439,0.391251,10.020493
2019-01-28 22:54:00:540,-0.127029,0.009155,-0.080688,0.694290,0.313492,10.071930
2019-01-28 22:54:00:540,-0.127029,0.009155,-0.080688,0.691895,0.232132,10.081512
2019-01-28 22:54:00:540,-0.127029,0.009155,-0.080688,0.705063,0.151962,10.089890
2019-01-28 22:54:00:540,-0.127029,0.009155,-0.080688,0.693100,0.153168,10.094666
2019-01-28 22:54:00:540,-0.127029,0.009155,-0.080688,0.730179,0.220169,9.930756
2019-01-28 22:54:00:540,0.002518,0.034134,-0.037811,0.730179,0.220169,9.930756
2019-01-28 22:54:00:540,0.002518,0.034134,-0.037811,0.757706,0.362549,9.728561
2019-01-28 22:54:00:540,0.002518,0.034134,-0.037811,0.711044,0.495346,9.653198
2019-01-28 22:54:00:540,0.002518,0.034134,-0.037811,0.709839,0.452271,9.689087
2019-01-28 22:54:00:540,0.002518,0.034134,-0.037811,0.834274,0.318268,9.734543
2019-01-28 22:54:00:540,0.002518,0.034134,-0.037811,0.877350,0.212982,9.778824
2019-01-28 22:54:00:540,0.002518,0.034134,-0.037811,0.831879,0.141205,9.862564
2019-01-28 22:54:00:540,0.002518,0.034134,-0.037811,0.750519,0.143600,9.775223
2019-01-28 22:54:00:540,0.002518,0.034134,-0.037811,0.769669,0.160339,9.730957
2019-01-28 22:54:00:540,0.002518,0.034134,-0.037811,0.773254,0.174698,9.692673
2019-01-28 22:54:00:540,0.002518,0.034134,-0.037811,0.818726,0.094543,9.619690
2019-01-28 22:54:01:541,-0.026306,-0.020905,-0.042999,0.818726,0.094543,9.619690
2019-01-28 22:54:01:541,-0.026306,-0.020905,-0.042999,0.874954,0.144791,9.486893
2019-01-28 22:54:01:541,-0.026306,-0.020905,-0.042999,0.862991,0.199829,9.423477
2019-01-28 22:54:01:541,-0.026306,-0.020905,-0.042999,0.886917,0.193848,9.448608
2019-01-28 22:54:01:541,-0.026306,-0.020905,-0.042999,0.849823,0.205811,9.467743
2019-01-28 22:54:01:541,-0.026306,-0.020905,-0.042999,0.813934,0.287155,9.581406
2019-01-28 22:54:01:541,-0.026306,-0.020905,-0.042999,0.848633,0.314682,9.750107
2019-01-28 22:54:01:541,-0.026306,-0.020905,-0.042999,0.865372,0.246490,9.890076
2019-01-28 22:54:01:541,-0.026306,-0.020905,-0.042999,0.918015,0.209396,9.992966
2019-01-28 22:54:01:541,-0.026306,-0.020905,-0.042999,1.016129,0.144791,10.160461
2019-01-28 22:54:01:541,0.042587,-0.081314,-0.068893,1.016129,0.144791,10.160461
2019-01-28 22:54:01:541,0.042587,-0.081314,-0.068893,1.101074,-0.013138,10.223877
2019-01-28 22:54:01:541,0.042587,-0.081314,-0.068893,1.187210,-0.082535,10.336334
2019-01-28 22:54:01:541,0.042587,-0.081314,-0.068893,1.138168,0.026352,10.283691
2019-01-28 22:54:01:541,0.042587,-0.081314,-0.068893,1.055603,0.338608,9.909225
2019-01-28 22:54:01:541,0.042587,-0.081314,-0.068893,1.013733,0.494141,9.473724
2019-01-28 22:54:01:541,0.042587,-0.081314,-0.068893,1.004150,0.460648,9.303848
2019-01-28 22:54:01:541,0.042587,-0.081314,-0.068893,1.135773,0.329041,9.577820
2019-01-28 22:54:01:541,0.042587,-0.081314,-0.068893,1.194397,0.317078,9.586197
2019-01-28 22:54:01:541,0.042587,-0.081314,-0.068893,1.120209,0.293152,9.220093
2019-01-28 22:54:01:541,0.042587,-0.081314,-0.068893,1.020905,0.244095,9.095657
2019-01-28 22:54:01:541,0.042953,-0.060242,-0.164505,1.020905,0.244095,9.095657
2019-01-28 22:54:01:541,0.042953,-0.060242,-0.164505,0.962296,0.208206,9.242828
2019-01-28 22:54:01:541,0.042953,-0.060242,-0.164505,0.865372,0.296738,9.398361
2019-01-28 22:54:01:541,0.042953,-0.060242,-0.164505,0.807953,0.461838,9.344513
2019-01-28 22:54:01:541,0.042953,-0.060242,-0.164505,0.831879,0.479782,9.367249
2019-01-28 22:54:01:541,0.042953,-0.060242,-0.164505,0.922806,0.301529,9.808731
2019-01-28 22:54:01:541,0.042953,-0.060242,-0.164505,1.146530,0.025146,10.576813
2019-01-28 22:54:01:541,0.042953,-0.060242,-0.164505,1.139359,0.058655,11.026672
2019-01-28 22:54:01:541,0.042953,-0.060242,-0.164505,0.859406,0.538422,10.678513
2019-01-28 22:54:01:541,0.042953,-0.060242,-0.164505,0.575851,1.147385,9.896057
2019-01-28 22:54:01:541,0.135864,0.098633,-0.190643,0.575851,1.147385,9.896057
2019-01-28 22:54:01:541,0.135864,0.098633,-0.190643,0.435867,1.282578,9.470139
2019-01-28 22:54:01:541,0.135864,0.098633,-0.190643,0.712234,0.746582,9.817108
2019-01-28 22:54:01:541,0.135864,0.098633,-0.190643,1.151321,0.089767,10.394974
2019-01-28 22:54:01:541,0.135864,0.098633,-0.190643,1.476746,0.003616,10.552887
2019-01-28 22:54:01:541,0.135864,0.098633,-0.190643,1.352310,0.415176,10.021683
2019-01-28 22:54:01:541,0.135864,0.098633,-0.190643,0.998169,0.853073,9.514404
2019-01-28 22:54:01:541,0.135864,0.098633,-0.190643,0.699081,0.914093,9.473724
2019-01-28 22:54:01:541,0.135864,0.098633,-0.190643,0.691895,0.847092,9.698654
2019-01-28 22:54:01:541,0.135864,0.098633,-0.190643,0.745728,0.720276,9.961868
2019-01-28 22:54:01:541,0.135864,0.098633,-0.190643,0.739746,0.563538,10.009720
2019-01-28 22:54:01:541,0.135864,0.098633,-0.190643,0.754105,0.587463,9.858978
2019-01-28 22:54:01:541,0.135864,0.098633,-0.190643,0.667969,0.802826,9.680710
2019-01-28 22:54:01:541,0.135864,0.098633,-0.190643,0.535172,1.076797,9.173431
2019-01-28 22:54:01:541,0.135864,0.098633,-0.190643,0.379639,1.159348,8.459167
2019-01-28 22:54:01:541,0.135864,0.098633,-0.190643,0.325790,1.011002,8.134949
2019-01-28 22:54:01:541,0.135864,0.098633,-0.190643,0.626099,0.544403,8.422089
2019-01-28 22:54:01:541,0.135864,0.098633,-0.190643,0.920410,-0.256012,9.315811
2019-01-28 22:54:01:541,0.135864,0.098633,-0.190643,1.249420,-1.027695,10.561264
2019-01-28 22:54:01:541,0.135864,0.098633,-0.190643,1.371460,-1.368668,10.938141
2019-01-28 22:54:02:542,0.001602,0.163757,-0.216919,1.371460,-1.368668,10.938141
2019-01-28 22:54:02:542,0.001602,0.163757,-0.216919,1.152512,-1.362701,10.473923
2019-01-28 22:54:02:542,0.001602,0.163757,-0.216919,1.006546,-1.162888,9.848206
2019-01-28 22:54:02:542,0.001602,0.163757,-0.216919,0.778046,-0.831482,9.009521
2019-01-28 22:54:02:542,0.001602,0.163757,-0.216919,0.316223,-0.606567,8.023682
2019-01-28 22:54:02:542,0.001602,0.163757,-0.216919,-0.084579,-0.806366,7.609726
2019-01-28 22:54:02:542,0.001602,0.163757,-0.216919,-0.054672,-1.314835,8.100250
2019-01-28 22:54:02:542,0.001602,0.163757,-0.216919,0.362885,-1.502670,8.653000
2019-01-28 22:54:02:542,0.001602,0.163757,-0.216919,0.828293,-1.256210,9.255981
2019-01-28 22:54:02:542,0.001602,0.163757,-0.216919,0.879730,-0.899673,9.531158
2019-01-28 22:54:02:542,0.001602,0.163757,-0.216919,0.535172,-0.629288,9.724976
2019-01-28 22:54:02:542,-0.392639,-0.165619,-0.048264,0.535172,-0.629288,9.724976
2019-01-28 22:54:02:542,-0.392639,-0.165619,-0.048264,0.231277,-0.569473,10.030060
2019-01-28 22:54:02:542,-0.392639,-0.165619,-0.048264,0.045837,-0.736969,10.339935
2019-01-28 22:54:02:542,-0.392639,-0.165619,-0.048264,0.051819,-1.311249,10.738342
2019-01-28 22:54:02:542,-0.392639,-0.165619,-0.048264,0.316223,-2.075760,10.939331
2019-01-28 22:54:02:542,-0.392639,-0.165619,-0.048264,0.757706,-2.760101,11.035049
2019-01-28 22:54:02:542,-0.392639,-0.165619,-0.048264,0.994583,-2.970673,10.989578
2019-01-28 22:54:02:542,-0.392639,-0.165619,-0.048264,0.794785,-2.523209,10.537338
2019-01-28 22:54:02:542,-0.392639,-0.165619,-0.048264,0.468170,-1.655807,10.030060
2019-01-28 22:54:02:542,-0.392639,-0.165619,-0.048264,0.143936,-0.841064,9.653183
2019-01-28 22:54:02:542,-0.218491,0.033524,0.031265,0.143936,-0.841064,9.653183
2019-01-28 22:54:02:542,-0.218491,0.033524,0.031265,0.038651,-0.391205,9.401947
2019-01-28 22:54:02:542,-0.218491,0.033524,0.031265,0.268372,-0.415131,9.318207
2019-01-28 22:54:02:542,-0.218491,0.033524,0.031265,0.797180,-0.800385,9.161469
2019-01-28 22:54:02:542,-0.218491,0.033524,0.031265,1.363083,-1.305267,9.053787
2019-01-28 22:54:02:542,-0.218491,0.033524,0.031265,1.633469,-1.793396,9.267944
2019-01-28 22:54:02:542,-0.218491,0.033524,0.031265,1.550919,-2.078156,9.433044
2019-01-28 22:54:02:542,-0.218491,0.033524,0.031265,1.175247,-2.039871,9.506042
2019-01-28 22:54:02:542,-0.218491,0.033524,0.031265,0.827087,-1.747940,9.583801
2019-01-28 22:54:02:542,-0.218491,0.033524,0.031265,0.513626,-1.448837,9.556274
2019-01-28 22:54:02:542,-0.218491,0.033524,0.031265,0.431076,-1.318436,9.607727
2019-01-28 22:54:02:542,-0.041153,-0.017792,-0.008682,0.431076,-1.318436,9.607727
2019-01-28 22:54:02:542,-0.041153,-0.017792,-0.008682,0.523209,-1.277740,9.876923
2019-01-28 22:54:02:542,-0.041153,-0.017792,-0.008682,0.496887,-1.221527,10.171234
2019-01-28 22:54:02:542,-0.041153,-0.017792,-0.008682,0.523209,-1.176056,10.357880
2019-01-28 22:54:02:542,-0.041153,-0.017792,-0.008682,0.581833,-1.184433,10.491882
2019-01-28 22:54:02:542,-0.041153,-0.017792,-0.008682,0.504059,-1.245438,10.682098
2019-01-28 22:54:02:542,-0.041153,-0.017792,-0.008682,0.437057,-1.113846,10.672531
2019-01-28 22:54:02:542,-0.041153,-0.017792,-0.008682,0.330582,-0.900879,10.449997
2019-01-28 22:54:02:542,-0.041153,-0.017792,-0.008682,0.313828,-0.784821,10.159271
2019-01-28 22:54:02:542,-0.041153,-0.017792,-0.008682,0.407150,-0.691498,9.757278
2019-01-28 22:54:02:542,0.163849,0.004013,-0.002930,0.407150,-0.691498,9.757278
2019-01-28 22:54:02:542,0.163849,0.004013,-0.002930,0.520813,-0.608948,9.382797
2019-01-28 22:54:02:542,0.163849,0.004013,-0.002930,0.524399,-0.451035,8.980804
2019-01-28 22:54:02:542,0.163849,0.004013,-0.002930,0.532776,-0.302673,8.636246
2019-01-28 22:54:02:542,0.163849,0.004013,-0.002930,0.598587,-0.313446,8.520187
2019-01-28 22:54:02:542,0.163849,0.004013,-0.002930,0.676346,-0.507263,8.931747
2019-01-28 22:54:02:542,0.163849,0.004013,-0.002930,0.797180,-0.763290,9.523972
2019-01-28 22:54:02:542,0.163849,0.004013,-0.002930,0.859406,-0.839859,10.214310
2019-01-28 22:54:02:542,0.163849,0.004013,-0.002930,0.880920,-0.703476,10.564850
2019-01-28 22:54:02:542,0.163849,0.004013,-0.002930,0.859390,-0.509644,10.463165
2019-01-28 22:54:02:542,0.163849,0.004013,-0.002930,0.895294,-0.339767,10.115005
2019-01-28 22:54:02:542,0.096832,-0.003555,0.058945,0.895294,-0.339767,10.115005
2019-01-28 22:54:02:542,0.096832,-0.003555,0.058945,0.811539,-0.147141,9.760864
2019-01-28 22:54:02:542,0.096832,-0.003555,0.058945,0.766083,-0.058609,9.433044
2019-01-28 22:54:02:542,0.096832,-0.003555,0.058945,0.739761,0.034729,9.293076
2019-01-28 22:54:02:542,0.096832,-0.003555,0.058945,0.687119,0.032333,9.221283
2019-01-28 22:54:02:542,0.096832,-0.003555,0.058945,0.794785,-0.038269,9.558670
2019-01-28 22:54:02:542,0.096832,-0.003555,0.058945,0.870163,-0.104065,10.025269
2019-01-28 22:54:02:542,0.096832,-0.003555,0.058945,0.995789,-0.173462,10.324371
2019-01-28 22:54:02:542,0.096832,-0.003555,0.058945,1.101074,-0.160294,10.411713
2019-01-28 22:54:02:542,0.096832,-0.003555,0.058945,1.049622,-0.083725,10.348312
2019-01-28 22:54:03:543,0.038010,-0.021332,0.088135,1.049622,-0.083725,10.348312
2019-01-28 22:54:03:543,0.038010,-0.021332,0.088135,1.022110,0.007202,10.182007
2019-01-28 22:54:03:543,0.038010,-0.021332,0.088135,1.034073,0.159149,9.726166
2019-01-28 22:54:03:543,0.038010,-0.021332,0.088135,0.996979,0.234528,9.348099
2019-01-28 22:54:03:543,0.038010,-0.021332,0.088135,0.922806,0.173508,9.212921
2019-01-28 22:54:03:543,0.038010,-0.021332,0.088135,0.904861,0.045486,9.178207
2019-01-28 22:54:03:543,0.038010,-0.021332,0.088135,1.018524,-0.163895,9.400757
2019-01-28 22:54:03:543,0.038010,-0.021332,0.088135,1.035263,-0.452225,9.735748
2019-01-28 22:54:03:543,0.038010,-0.021332,0.088135,0.926392,-0.489319,9.827866
2019-01-28 22:54:03:543,0.038010,-0.021332,0.088135,0.766083,-0.324203,9.753693
2019-01-28 22:54:03:543,0.038010,-0.021332,0.088135,0.555511,-0.166275,9.671143
2019-01-28 22:54:03:543,-0.013535,0.072113,-0.079163,0.555511,-0.166275,9.671143
2019-01-28 22:54:03:543,-0.013535,0.072113,-0.079163,0.444244,-0.065781,9.656784
2019-01-28 22:54:03:543,-0.013535,0.072113,-0.079163,0.385620,0.021561,9.543121
2019-01-28 22:54:03:543,-0.013535,0.072113,-0.079163,0.338959,0.070618,9.445007
2019-01-28 22:54:03:543,-0.013535,0.072113,-0.079163,0.371262,-0.016739,9.282303
2019-01-28 22:54:03:543,-0.013535,0.072113,-0.079163,0.402374,-0.071762,9.009521
2019-01-28 22:54:03:543,-0.013535,0.072113,-0.079163,0.399979,-0.197388,8.924576
2019-01-28 22:54:03:543,-0.013535,0.072113,-0.079163,0.483719,-0.418732,9.133957
2019-01-28 22:54:03:543,-0.013535,0.072113,-0.079163,0.464584,-0.503677,9.497665
2019-01-28 22:54:03:543,-0.013535,0.072113,-0.079163,0.356903,-0.400787,9.697464
2019-01-28 22:54:03:543,-0.192886,0.033890,-0.090347,0.356903,-0.400787,9.697464
2019-01-28 22:54:03:543,-0.192886,0.033890,-0.090347,0.185806,-0.184219,9.848206
2019-01-28 22:54:03:543,-0.192886,0.033890,-0.090347,0.111633,-0.135178,10.038437
2019-01-28 22:54:03:543,-0.192886,0.033890,-0.090347,0.147537,-0.190216,10.268143
2019-01-28 22:54:03:543,-0.192886,0.033890,-0.090347,0.216919,-0.340958,10.530167
2019-01-28 22:54:03:543,-0.192886,0.033890,-0.090347,0.271957,-0.470169,10.639038
2019-01-28 22:54:03:543,-0.192886,0.033890,-0.090347,0.316223,-0.486923,10.433243
2019-01-28 22:54:03:543,-0.192886,0.033890,-0.090347,0.300674,-0.351730,10.022888
2019-01-28 22:54:03:543,-0.192886,0.033890,-0.090347,0.331787,-0.242859,9.746521
2019-01-28 22:54:03:543,-0.192886,0.033890,-0.090347,0.476547,-0.218918,9.494064
2019-01-28 22:54:03:543,0.005142,0.024414,0.009659,0.476547,-0.218918,9.494064
2019-01-28 22:54:03:543,0.005142,0.024414,0.009659,0.496887,-0.290710,9.384003
2019-01-28 22:54:03:543,0.005142,0.024414,0.009659,0.605759,-0.460602,9.464157
2019-01-28 22:54:03:543,0.005142,0.024414,0.009659,0.639252,-0.519226,9.625671
2019-01-28 22:54:03:543,0.005142,0.024414,0.009659,0.571060,-0.421112,9.785995
2019-01-28 22:54:03:543,0.005142,0.024414,0.009659,0.447830,-0.305069,9.946320
2019-01-28 22:54:03:543,0.005142,0.024414,0.009659,0.376038,-0.270370,10.092270
2019-01-28 22:54:03:543,0.005142,0.024414,0.009659,0.420303,-0.266785,10.277710
2019-01-28 22:54:03:543,0.005142,0.024414,0.009659,0.405960,-0.254822,10.295670
2019-01-28 22:54:03:543,0.005142,0.024414,0.009659,0.567474,-0.224915,10.106628
2019-01-28 22:54:03:543,0.005142,0.024414,0.009659,0.647629,-0.209351,9.858978
2019-01-28 22:54:03:543,0.118149,-0.049911,0.125580,0.647629,-0.209351,9.858978
2019-01-28 22:54:03:543,0.118149,-0.049911,0.125580,0.623703,-0.233276,9.896072
2019-01-28 22:54:03:543,0.118149,-0.049911,0.125580,0.633270,-0.189011,9.896057
2019-01-28 22:54:03:543,0.118149,-0.049911,0.125580,0.562683,-0.047836,9.724976
2019-01-28 22:54:03:543,0.118149,-0.049911,0.125580,0.593796,0.013184,9.613708
2019-01-28 22:54:03:543,0.118149,-0.049911,0.125580,0.600967,-0.051422,9.656784
2019-01-28 22:54:03:543,0.118149,-0.049911,0.125580,0.688309,-0.129196,9.856583
2019-01-28 22:54:03:543,0.118149,-0.049911,0.125580,0.667969,-0.083740,9.862564
2019-01-28 22:54:03:543,0.118149,-0.049911,0.125580,0.654816,-0.057404,9.565857
2019-01-28 22:54:03:543,0.118149,-0.049911,0.125580,0.705063,-0.099289,9.514404
2019-01-28 22:54:04:544,0.091278,-0.052658,0.033478,0.705063,-0.099289,9.514404
2019-01-28 22:54:04:544,0.091278,-0.052658,0.033478,0.727798,-0.210556,9.709427
2019-01-28 22:54:04:544,0.091278,-0.052658,0.033478,0.715836,-0.110046,9.766846
2019-01-28 22:54:04:544,0.091278,-0.052658,0.033478,0.671570,-0.039459,9.611313
2019-01-28 22:54:04:544,0.091278,-0.052658,0.033478,0.721802,-0.059799,9.515594
2019-01-28 22:54:04:544,0.091278,-0.052658,0.033478,0.842651,-0.144745,9.716599
2019-01-28 22:54:04:544,0.091278,-0.052658,0.033478,0.822311,-0.129196,9.919998
2019-01-28 22:54:04:544,0.091278,-0.052658,0.033478,0.912033,-0.072968,9.825470
2019-01-28 22:54:04:544,0.091278,-0.052658,0.033478,0.915634,-0.065781,9.613708
2019-01-28 22:54:04:544,0.091278,-0.052658,0.033478,0.840256,-0.068176,9.671143
2019-01-28 22:54:04:544,0.091278,-0.052658,0.033478,0.776840,0.026352,9.780014
2019-01-28 22:54:04:544,0.103668,-0.105133,0.062424,0.776840,0.026352,9.780014
2019-01-28 22:54:04:544,0.103668,-0.105133,0.062424,0.846237,0.101730,9.685501
2019-01-28 22:54:04:544,0.103668,-0.105133,0.062424,0.909637,0.049088,9.635239
2019-01-28 22:54:04:544,0.103668,-0.105133,0.062424,0.914429,0.083771,9.663956
2019-01-28 22:54:04:544,0.103668,-0.105133,0.062424,0.872559,0.279984,9.680710
2019-01-28 22:54:04:544,0.103668,-0.105133,0.062424,0.861786,0.410400,9.698654
2019-01-28 22:54:04:544,0.103668,-0.105133,0.062424,0.870163,0.409195,9.741730
2019-01-28 22:54:04:544,0.103668,-0.105133,0.062424,0.969467,0.354156,9.756088
2019-01-28 22:54:04:544,0.103668,-0.105133,0.062424,1.030487,0.361343,9.689087
2019-01-28 22:54:04:544,0.103668,-0.105133,0.062424,1.171661,0.281174,9.680710
2019-01-28 22:54:04:544,0.113266,-0.010208,-0.016373,1.171661,0.281174,9.680710
2019-01-28 22:54:04:544,0.113266,-0.010208,-0.016373,1.147736,0.180679,9.708221
2019-01-28 22:54:04:544,0.113266,-0.010208,-0.016373,1.050812,0.209396,9.823090
2019-01-28 22:54:04:544,0.113266,-0.010208,-0.016373,0.925201,0.372116,9.825470
2019-01-28 22:54:04:544,0.113266,-0.010208,-0.016373,0.927582,0.440308,9.708221
2019-01-28 22:54:04:544,0.113266,-0.010208,-0.016373,0.872559,0.355362,9.730957
2019-01-28 22:54:04:544,0.113266,-0.010208,-0.016373,0.962280,0.339798,9.849396
2019-01-28 22:54:04:544,0.113266,-0.010208,-0.016373,0.902466,0.564728,9.654388
2019-01-28 22:54:04:544,0.113266,-0.010208,-0.016373,0.935959,0.777695,9.261963
2019-01-28 22:54:04:544,0.113266,-0.010208,-0.016373,0.855804,0.778885,9.095673
2019-01-28 22:54:04:544,0.113266,-0.010208,-0.016373,0.952713,0.592255,9.340927
2019-01-28 22:54:04:544,0.070938,0.006775,-0.060776,0.952713,0.592255,9.340927
2019-01-28 22:54:04:544,0.070938,0.006775,-0.060776,0.927582,0.559952,9.711807
2019-01-28 22:54:04:544,0.070938,0.006775,-0.060776,1.023300,0.547989,9.928360
2019-01-28 22:54:04:544,0.070938,0.006775,-0.060776,0.971863,0.422363,9.981018
2019-01-28 22:54:04:544,0.070938,0.006775,-0.060776,0.981430,0.326645,10.226273
2019-01-28 22:54:04:544,0.070938,0.006775,-0.060776,0.835464,0.581482,10.282501
2019-01-28 22:54:04:544,0.070938,0.006775,-0.060776,0.671555,1.040909,10.037247
2019-01-28 22:54:04:544,0.070938,0.006775,-0.060776,0.647629,1.274200,9.640030
2019-01-28 22:54:04:544,0.070938,0.006775,-0.060776,0.825897,1.147385,9.760864
2019-01-28 22:54:04:544,0.070938,0.006775,-0.060776,1.049622,1.048080,10.300446
2019-01-28 22:54:04:544,0.263535,0.001144,-0.024918,1.049622,1.048080,10.300446
2019-01-28 22:54:04:544,0.263535,0.001144,-0.024918,1.253021,1.012192,10.680908
2019-01-28 22:54:04:544,0.263535,0.001144,-0.024918,1.345139,0.938019,10.592377
2019-01-28 22:54:04:544,0.263535,0.001144,-0.024918,1.311646,0.878189,10.424881
2019-01-28 22:54:04:544,0.263535,0.001144,-0.024918,1.360703,1.005005,10.012115
2019-01-28 22:54:04:544,0.263535,0.001144,-0.024918,1.403763,1.094742,9.372040
2019-01-28 22:54:04:544,0.263535,0.001144,-0.024918,1.305664,1.069611,8.776215
2019-01-28 22:54:04:544,0.263535,0.001144,-0.024918,1.181229,1.064835,8.580017
2019-01-28 22:54:04:544,0.263535,0.001144,-0.024918,1.205154,1.044495,8.201950
2019-01-28 22:54:04:544,0.263535,0.001144,-0.024918,1.232681,0.788467,8.033249
2019-01-28 22:54:04:544,0.263535,0.001144,-0.024918,1.249420,0.467819,8.696060
2019-01-28 22:54:04:544,-0.114151,-0.126083,-0.084854,1.249420,0.467819,8.696060
2019-01-28 22:54:04:544,-0.114151,-0.126083,-0.084854,1.256607,0.469025,9.246414
2019-01-28 22:54:04:544,-0.114151,-0.126083,-0.084854,1.206360,0.642502,9.322983
2019-01-28 22:54:04:544,-0.114151,-0.126083,-0.084854,1.138168,0.750183,9.184204
2019-01-28 22:54:04:544,-0.114151,-0.126083,-0.084854,1.136963,0.757355,9.340927
2019-01-28 22:54:04:544,-0.114151,-0.126083,-0.084854,1.262589,0.727448,9.568253
2019-01-28 22:54:04:544,-0.114151,-0.126083,-0.084854,1.354706,0.589859,9.696259
2019-01-28 22:54:04:544,-0.114151,-0.126083,-0.084854,1.468369,0.565933,9.774033
2019-01-28 22:54:04:544,-0.114151,-0.126083,-0.084854,1.383423,0.697540,9.758484
2019-01-28 22:54:04:544,-0.114151,-0.126083,-0.084854,1.243439,1.109100,9.455780
2019-01-28 22:54:05:545,-0.025085,-0.119003,-0.124435,1.243439,1.109100,9.455780
2019-01-28 22:54:05:545,-0.025085,-0.119003,-0.124435,1.154907,1.587662,9.173431
2019-01-28 22:54:05:545,-0.025085,-0.119003,-0.124435,1.133377,1.692947,9.336151
2019-01-28 22:54:05:545,-0.025085,-0.119003,-0.124435,1.353516,1.530243,9.750107
2019-01-28 22:54:05:545,-0.025085,-0.119003,-0.124435,1.676544,1.244293,10.475128
2019-01-28 22:54:05:545,-0.025085,-0.119003,-0.124435,1.741150,0.996643,11.099655
2019-01-28 22:54:05:545,-0.025085,-0.119003,-0.124435,1.596390,0.972702,11.191772
2019-01-28 22:54:05:545,-0.025085,-0.119003,-0.124435,1.342743,1.111496,10.776627
2019-01-28 22:54:05:545,-0.025085,-0.119003,-0.124435,1.059189,1.276596,10.201141
2019-01-28 22:54:05:545,-0.025085,-0.119003,-0.124435,0.982620,1.391449,9.758469
2019-01-28 22:54:05:545,-0.025085,-0.119003,-0.124435,1.068771,1.264633,9.772827
2019-01-28 22:54:05:545,-0.025085,-0.119003,-0.124435,1.279343,1.118668,10.034851
2019-01-28 22:54:05:545,-0.025085,-0.119003,-0.124435,1.334366,1.302917,9.802750
2019-01-28 22:54:05:545,-0.025085,-0.119003,-0.124435,1.114227,1.665436,9.301453
2019-01-28 22:54:05:545,-0.025085,-0.119003,-0.124435,0.750519,1.879593,9.087296
2019-01-28 22:54:05:545,-0.025085,-0.119003,-0.124435,0.740952,1.685760,9.228470
2019-01-28 22:54:05:545,-0.025085,-0.119003,-0.124435,1.031677,1.240707,9.360077
2019-01-28 22:54:05:545,-0.025085,-0.119003,-0.124435,1.148926,1.010986,9.345718
2019-01-28 22:54:05:545,-0.025085,-0.119003,-0.124435,1.197983,1.109100,9.188980
2019-01-28 22:54:05:545,-0.025085,-0.119003,-0.124435,1.066376,1.247879,9.019089
2019-01-28 22:54:05:545,0.009613,0.111954,-0.224426,1.066376,1.247879,9.019089
2019-01-28 22:54:05:545,0.009613,0.111954,-0.224426,0.907257,1.417770,9.186584
2019-01-28 22:54:05:545,0.009613,0.111954,-0.224426,0.821106,1.593643,9.708221
2019-01-28 22:54:05:545,0.009613,0.111954,-0.224426,0.797180,1.696533,9.870941
2019-01-28 22:54:05:545,0.009613,0.111954,-0.224426,0.858200,1.658249,9.992966
2019-01-28 22:54:05:545,0.009613,0.111954,-0.224426,1.056793,1.477585,10.257370
2019-01-28 22:54:05:545,0.009613,0.111954,-0.224426,1.270966,1.086365,10.217896
2019-01-28 22:54:05:545,0.009613,0.111954,-0.224426,1.225494,0.970322,9.729767
2019-01-28 22:54:05:545,0.009613,0.111954,-0.224426,1.053207,1.089951,9.053787
2019-01-28 22:54:05:545,0.009613,0.111954,-0.224426,0.797180,1.122253,8.308426
2019-01-28 22:54:05:545,0.009613,0.111954,-0.224426,0.511230,0.953568,8.027267
2019-01-28 22:54:05:545,0.039169,0.215057,-0.252655,0.511230,0.953568,8.027267
2019-01-28 22:54:05:545,0.039169,0.215057,-0.252655,0.289902,0.781281,8.511810
2019-01-28 22:54:05:545,0.039169,0.215057,-0.252655,0.125992,0.960739,8.901840
2019-01-28 22:54:05:545,0.039169,0.215057,-0.252655,0.006348,1.312485,8.438843
2019-01-28 22:54:05:545,0.039169,0.215057,-0.252655,-0.132431,1.858047,7.508026
2019-01-28 22:54:05:545,0.039169,0.215057,-0.252655,-0.143204,2.246887,7.187393
2019-01-28 22:54:05:545,0.039169,0.215057,-0.252655,-0.055862,2.110489,8.059570
2019-01-28 22:54:05:545,0.039169,0.215057,-0.252655,0.099670,1.820969,9.327759
2019-01-28 22:54:05:545,0.039169,0.215057,-0.252655,0.348526,1.624756,11.018295
2019-01-28 22:54:05:545,0.039169,0.215057,-0.252655,0.904861,1.322067,12.329559
2019-01-28 22:54:05:545,-0.081955,0.096497,-0.286865,0.904861,1.322067,12.329559
2019-01-28 22:54:05:545,-0.081955,0.096497,-0.286865,1.372650,1.131836,13.135941
2019-01-28 22:54:05:545,-0.081955,0.096497,-0.286865,1.392990,1.289749,13.445816
2019-01-28 22:54:05:545,-0.081955,0.096497,-0.286865,1.172852,1.349579,12.954086
2019-01-28 22:54:05:545,-0.081955,0.096497,-0.286865,0.853409,1.435715,11.709824
2019-01-28 22:54:05:545,-0.081955,0.096497,-0.286865,0.711044,1.629532,10.062363
2019-01-28 22:54:05:545,-0.081955,0.096497,-0.286865,0.772064,1.458450,8.596756
2019-01-28 22:54:05:545,-0.081955,0.096497,-0.286865,0.835464,1.025345,7.854980
2019-01-28 22:54:05:545,-0.081955,0.096497,-0.286865,0.853424,1.030136,7.436234
2019-01-28 22:54:05:545,-0.081955,0.096497,-0.286865,0.791199,1.270615,7.475723
2019-01-28 22:54:05:545,-0.081955,0.096497,-0.286865,1.011337,1.423752,8.012909
2019-01-28 22:54:06:546,-0.036575,-0.047958,-0.274216,1.011337,1.423752,8.012909
2019-01-28 22:54:06:546,-0.036575,-0.047958,-0.274216,0.915619,1.513489,9.181808
2019-01-28 22:54:06:546,-0.036575,-0.047958,-0.274216,1.031677,1.799423,10.964462
2019-01-28 22:54:06:546,-0.036575,-0.047958,-0.274216,1.008942,1.795837,12.560471
2019-01-28 22:54:06:546,-0.036575,-0.047958,-0.274216,1.213531,1.044495,13.811920
2019-01-28 22:54:06:546,-0.036575,-0.047958,-0.274216,1.680130,0.278793,14.343124
2019-01-28 22:54:06:546,-0.036575,-0.047958,-0.274216,1.561691,0.588654,13.234055
2019-01-28 22:54:06:546,-0.036575,-0.047958,-0.274216,1.096283,1.238312,10.804138
2019-01-28 22:54:06:546,-0.036575,-0.047958,-0.274216,0.782822,1.306503,8.456772
2019-01-28 22:54:06:546,-0.036575,-0.047958,-0.274216,0.673950,0.771713,7.110809
2019-01-28 22:54:06:546,0.021515,-0.154373,-0.225830,0.673950,0.771713,7.110809
2019-01-28 22:54:06:546,0.021515,-0.154373,-0.225830,0.859406,0.090958,6.786591
2019-01-28 22:54:06:546,0.021515,-0.154373,-0.225830,1.113037,-0.296692,6.457581
2019-01-28 22:54:06:546,0.021515,-0.154373,-0.225830,1.111832,-0.279938,6.401352
2019-01-28 22:54:06:546,0.021515,-0.154373,-0.225830,0.772064,0.129242,6.639435
2019-01-28 22:54:06:546,0.021515,-0.154373,-0.225830,0.434677,0.809998,6.998352
2019-01-28 22:54:06:546,0.021515,-0.154373,-0.225830,0.103271,1.387863,7.759277
2019-01-28 22:54:06:546,0.021515,-0.154373,-0.225830,0.111633,1.375900,9.034653
2019-01-28 22:54:06:546,0.021515,-0.154373,-0.225830,0.638062,0.608994,10.889084
2019-01-28 22:54:06:546,0.021515,-0.154373,-0.225830,1.363083,-0.215332,12.827271
2019-01-28 22:54:06:546,0.021515,-0.154373,-0.225830,1.509048,-0.305069,13.346512
2019-01-28 22:54:06:546,-0.272308,-0.041122,-0.257172,1.509048,-0.305069,13.346512
2019-01-28 22:54:06:546,-0.272308,-0.041122,-0.257172,0.714630,0.483383,11.878525
2019-01-28 22:54:06:546,-0.272308,-0.041122,-0.257172,0.011139,1.316086,10.278915
2019-01-28 22:54:06:546,-0.272308,-0.041122,-0.257172,-0.252075,1.525452,9.549103
2019-01-28 22:54:06:546,-0.272308,-0.041122,-0.257172,-0.073807,1.208405,9.604141
2019-01-28 22:54:06:546,-0.272308,-0.041122,-0.257172,0.542343,0.751373,9.964264
2019-01-28 22:54:06:546,-0.272308,-0.041122,-0.257172,1.078339,0.544388,9.716599
2019-01-28 22:54:06:546,-0.272308,-0.041122,-0.257172,1.416916,0.666428,9.465347
2019-01-28 22:54:06:546,-0.272308,-0.041122,-0.257172,1.607147,0.848282,8.978424
2019-01-28 22:54:06:546,-0.272308,-0.041122,-0.257172,1.530579,0.762146,8.948502
2019-01-28 22:54:06:546,0.128052,0.177124,-0.123032,1.530579,0.762146,8.948502
2019-01-28 22:54:06:546,0.128052,0.177124,-0.123032,1.505447,0.427139,9.559875
2019-01-28 22:54:06:546,0.128052,0.177124,-0.123032,1.092697,0.424759,10.142517
2019-01-28 22:54:06:546,0.128052,0.177124,-0.123032,0.803162,0.707108,10.253784
2019-01-28 22:54:06:546,0.128052,0.177124,-0.123032,0.392792,0.912888,9.784805
2019-01-28 22:54:06:546,0.128052,0.177124,-0.123032,-0.012802,1.098328,9.683105
2019-01-28 22:54:06:546,0.128052,0.177124,-0.123032,-0.242508,1.466827,9.502441
2019-01-28 22:54:06:546,0.128052,0.177124,-0.123032,-0.376495,1.690552,8.970047
2019-01-28 22:54:06:546,0.128052,0.177124,-0.123032,-0.253281,1.331635,8.396957
2019-01-28 22:54:06:546,0.128052,0.177124,-0.123032,-0.155167,0.878189,8.461563
2019-01-28 22:54:06:546,0.128052,0.177124,-0.123032,-0.224564,0.795639,9.271530
2019-01-28 22:54:06:546,0.088654,0.141571,-0.136215,-0.224564,0.795639,9.271530
2019-01-28 22:54:06:546,0.088654,0.141571,-0.136215,-0.238907,1.074402,9.746506
2019-01-28 22:54:06:546,0.088654,0.141571,-0.136215,-0.104919,1.092346,10.164063
2019-01-28 22:54:06:546,0.088654,0.141571,-0.136215,-0.127655,1.162933,10.885498
2019-01-28 22:54:06:546,0.088654,0.141571,-0.136215,0.031479,1.290955,11.530365
2019-01-28 22:54:06:546,0.088654,0.141571,-0.136215,0.499283,1.125854,11.189377
2019-01-28 22:54:06:546,0.088654,0.141571,-0.136215,1.171661,0.647293,10.293274
2019-01-28 22:54:06:546,0.088654,0.141571,-0.136215,1.342743,0.183075,9.681900
2019-01-28 22:54:06:546,0.088654,0.141571,-0.136215,1.202759,0.482178,9.148315
2019-01-28 22:54:06:546,0.088654,0.141571,-0.136215,0.604568,1.158157,8.240234
2019-01-28 22:54:07:547,-0.114883,-0.144287,-0.000977,0.604568,1.158157,8.240234
2019-01-28 22:54:07:547,-0.114883,-0.144287,-0.000977,0.201370,1.557755,8.000946
2019-01-28 22:54:07:547,-0.114883,-0.144287,-0.000977,0.299469,1.302917,8.824081
2019-01-28 22:54:07:547,-0.114883,-0.144287,-0.000977,0.344940,1.027740,10.379410
2019-01-28 22:54:07:547,-0.114883,-0.144287,-0.000977,0.131973,1.289764,11.520782
2019-01-28 22:54:07:547,-0.114883,-0.144287,-0.000977,0.078140,1.716873,11.620087
2019-01-28 22:54:07:547,-0.114883,-0.144287,-0.000977,0.088913,1.797043,10.685699
2019-01-28 22:54:07:547,-0.114883,-0.144287,-0.000977,0.184616,1.727646,10.240631
2019-01-28 22:54:07:547,-0.114883,-0.144287,-0.000977,0.370056,1.482376,9.845825
2019-01-28 22:54:07:547,-0.114883,-0.144287,-0.000977,0.203766,1.166519,9.369644
2019-01-28 22:54:07:547,-0.114883,-0.144287,-0.000977,0.215729,0.833923,8.877914
2019-01-28 22:54:07:547,0.228348,0.065704,0.021133,0.215729,0.833923,8.877914
2019-01-28 22:54:07:547,0.228348,0.065704,0.021133,0.274353,0.790848,8.546509
2019-01-28 22:54:07:547,0.228348,0.065704,0.021133,0.219315,1.319672,7.939926
2019-01-28 22:54:07:547,0.228348,0.065704,0.021133,0.086517,1.856857,7.609711
2019-01-28 22:54:07:547,0.228348,0.065704,0.021133,0.226486,1.904709,8.046417
2019-01-28 22:54:07:547,0.228348,0.065704,0.021133,0.437057,1.690552,8.865952
2019-01-28 22:54:07:547,0.228348,0.065704,0.021133,0.742142,1.140213,10.209518
2019-01-28 22:54:07:547,0.228348,0.065704,0.021133,1.096283,0.175903,11.980209
2019-01-28 22:54:07:547,0.228348,0.065704,0.021133,0.983826,-0.020325,12.568848
2019-01-28 22:54:07:547,0.228348,0.065704,0.021133,0.677536,0.831528,11.413116
2019-01-28 22:54:07:547,-0.059235,-0.035614,-0.002930,0.677536,0.831528,11.413116
2019-01-28 22:54:07:547,-0.059235,-0.035614,-0.002930,0.013535,1.651077,9.683105
2019-01-28 22:54:07:547,-0.059235,-0.035614,-0.002930,-0.676804,1.932236,8.462769
2019-01-28 22:54:07:547,-0.059235,-0.035614,-0.002930,-0.613388,1.768326,8.420898
2019-01-28 22:54:07:547,-0.059235,-0.035614,-0.002930,0.043442,0.902115,8.986786
2019-01-28 22:54:07:547,-0.059235,-0.035614,-0.002930,0.429886,0.195038,9.528763
2019-01-28 22:54:07:547,-0.059235,-0.035614,-0.002930,0.959900,0.069412,9.600540
2019-01-28 22:54:07:547,-0.059235,-0.035614,-0.002930,0.785217,0.689163,8.862366
2019-01-28 22:54:07:547,-0.059235,-0.035614,-0.002930,0.301865,2.004013,7.566650
2019-01-28 22:54:07:547,-0.059235,-0.035614,-0.002930,0.282730,2.869019,6.688492
2019-01-28 22:54:07:547,-0.059235,-0.035614,-0.002930,0.421509,2.322266,7.510422
2019-01-28 22:54:07:547,-0.162964,-0.166962,-0.068726,0.421509,2.322266,7.510422
2019-01-28 22:54:07:547,-0.162964,-0.166962,-0.068726,0.295883,0.656860,10.422485
2019-01-28 22:54:07:547,-0.162964,-0.166962,-0.068726,0.787613,-0.754913,14.296463
2019-01-28 22:54:07:547,-0.162964,-0.166962,-0.068726,1.555710,-1.336380,16.914215
2019-01-28 22:54:07:547,-0.162964,-0.166962,-0.068726,1.461182,-1.140167,15.690277
2019-01-28 22:54:07:547,-0.162964,-0.166962,-0.068726,0.586609,0.485764,13.006729
2019-01-28 22:54:07:547,-0.162964,-0.166962,-0.068726,-0.170731,2.474213,10.082703
2019-01-28 22:54:07:547,-0.162964,-0.166962,-0.068726,-0.919678,3.171707,7.480515
2019-01-28 22:54:07:547,-0.162964,-0.166962,-0.068726,-0.675613,2.208603,6.688477
2019-01-28 22:54:07:547,-0.162964,-0.166962,-0.068726,0.471756,0.884171,7.229263
2019-01-28 22:54:07:547,0.231354,-0.104645,0.198639,0.471756,0.884171,7.229263
2019-01-28 22:54:07:547,0.231354,-0.104645,0.198639,1.225494,0.122070,7.744919
2019-01-28 22:54:07:547,0.231354,-0.104645,0.198639,1.385818,0.001221,7.755676
2019-01-28 22:54:07:547,0.231354,-0.104645,0.198639,0.974243,0.253662,7.524780
2019-01-28 22:54:07:547,0.231354,-0.104645,0.198639,0.575851,0.707108,8.155273
2019-01-28 22:54:07:547,0.231354,-0.104645,0.198639,0.245636,1.094742,9.211716
2019-01-28 22:54:07:547,0.231354,-0.104645,0.198639,-0.289169,1.731232,9.904434
2019-01-28 22:54:07:547,0.231354,-0.104645,0.198639,-0.396835,2.550781,9.656784
2019-01-28 22:54:07:547,0.231354,-0.104645,0.198639,0.058990,2.445496,9.374435
2019-01-28 22:54:07:547,0.231354,-0.104645,0.198639,0.441849,1.353165,10.487091
2019-01-28 22:54:07:547,0.231354,-0.104645,0.198639,1.180023,0.419968,12.432449
2019-01-28 22:54:07:547,-0.128998,-0.099274,0.259720,1.180023,0.419968,12.432449
2019-01-28 22:54:07:547,-0.128998,-0.099274,0.259720,1.638260,0.436722,13.362076
2019-01-28 22:54:07:547,-0.128998,-0.099274,0.259720,1.541351,0.866226,11.556686
2019-01-28 22:54:07:547,-0.128998,-0.099274,0.259720,0.996979,1.519470,9.890091
2019-01-28 22:54:07:547,-0.128998,-0.099274,0.259720,0.421509,1.525452,9.497650
2019-01-28 22:54:07:547,-0.128998,-0.099274,0.259720,0.514832,0.908096,10.332748
2019-01-28 22:54:07:547,-0.128998,-0.099274,0.259720,1.083130,0.710693,10.909424
2019-01-28 22:54:07:547,-0.128998,-0.099274,0.259720,1.672958,0.754959,9.797958
2019-01-28 22:54:07:547,-0.128998,-0.099274,0.259720,1.485123,1.001419,8.807327
2019-01-28 22:54:07:547,-0.128998,-0.099274,0.259720,1.315231,1.216782,8.264160
2019-01-28 22:54:08:548,0.121033,-0.001419,0.115570,1.315231,1.216782,8.264160
2019-01-28 22:54:08:548,0.121033,-0.001419,0.115570,1.353516,0.959549,8.207932
2019-01-28 22:54:08:548,0.121033,-0.001419,0.115570,1.208755,0.807602,8.502243
2019-01-28 22:54:08:548,0.121033,-0.001419,0.115570,1.182434,0.975098,8.507034
2019-01-28 22:54:08:548,0.121033,-0.001419,0.115570,1.101074,0.940414,8.552490
2019-01-28 22:54:08:548,0.121033,-0.001419,0.115570,1.188416,0.443893,9.013123
2019-01-28 22:54:08:548,0.121033,-0.001419,0.115570,0.781631,0.477402,10.094666
2019-01-28 22:54:08:548,0.121033,-0.001419,0.115570,0.565079,1.350769,10.160477
2019-01-28 22:54:08:548,0.121033,-0.001419,0.115570,0.659592,2.061447,8.430466
2019-01-28 22:54:08:548,0.121033,-0.001419,0.115570,0.464584,2.106903,7.231659
2019-01-28 22:54:08:548,0.121033,-0.001419,0.115570,0.712234,1.116272,8.194763
2019-01-28 22:54:08:548,-0.088486,0.227585,-0.119797,0.712234,1.116272,8.194763
2019-01-28 22:54:08:548,-0.088486,0.227585,-0.119797,0.895294,0.470215,10.059967
2019-01-28 22:54:08:548,-0.088486,0.227585,-0.119797,1.253006,0.673615,10.019287
2019-01-28 22:54:08:548,-0.088486,0.227585,-0.119797,1.037659,0.833923,8.879105
2019-01-28 22:54:08:548,-0.088486,0.227585,-0.119797,0.355713,0.515686,8.463959
2019-01-28 22:54:08:548,-0.088486,0.227585,-0.119797,0.251617,0.579086,9.376816
2019-01-28 22:54:08:548,-0.088486,0.227585,-0.119797,0.829483,0.467819,9.860168
2019-01-28 22:54:08:548,-0.088486,0.227585,-0.119797,1.079529,0.218964,10.016891
2019-01-28 22:54:08:548,-0.088486,0.227585,-0.119797,1.365479,-0.110046,10.262161
2019-01-28 22:54:08:548,-0.088486,0.227585,-0.119797,1.371460,-0.411545,10.518188
2019-01-28 22:54:08:548,-0.147263,0.015747,-0.140549,1.371460,-0.411545,10.518188
2019-01-28 22:54:08:548,-0.147263,0.015747,-0.140549,0.896484,-0.205765,10.493073
2019-01-28 22:54:08:548,-0.147263,0.015747,-0.140549,0.298279,0.108902,10.015701
2019-01-28 22:54:08:548,-0.147263,0.015747,-0.140549,0.154709,0.077789,9.281097
2019-01-28 22:54:08:548,-0.147263,0.015747,-0.140549,-0.028351,-0.074158,8.904236
2019-01-28 22:54:08:548,-0.147263,0.015747,-0.140549,0.036270,-0.068176,9.009521
2019-01-28 22:54:08:548,-0.147263,0.015747,-0.140549,0.157104,-0.014343,8.655380
2019-01-28 22:54:08:548,-0.147263,0.015747,-0.140549,0.256393,0.253662,8.334747
2019-01-28 22:54:08:548,-0.147263,0.015747,-0.140549,0.849823,0.256058,7.974625
2019-01-28 22:54:08:548,-0.147263,0.015747,-0.140549,1.141754,-0.119614,8.710419
2019-01-28 22:54:08:548,-0.147263,0.015747,-0.140549,1.034073,-0.803970,11.810318
2019-01-28 22:54:08:548,-0.119827,-0.116684,-0.011612,1.034073,-0.803970,11.810318
2019-01-28 22:54:08:548,-0.119827,-0.116684,-0.011612,0.937164,-1.373459,14.745117
2019-01-28 22:54:08:548,-0.119827,-0.116684,-0.011612,0.116425,-0.587418,13.341736
2019-01-28 22:54:08:548,-0.119827,-0.116684,-0.011612,0.151123,0.352966,10.402145
2019-01-28 22:54:08:548,-0.119827,-0.116684,-0.011612,0.300674,0.283569,9.941528
2019-01-28 22:54:08:548,-0.119827,-0.116684,-0.011612,-0.054672,-0.057404,9.576614
2019-01-28 22:54:08:548,-0.119827,-0.116684,-0.011612,-0.150375,0.004807,9.311020
2019-01-28 22:54:08:548,-0.119827,-0.116684,-0.011612,0.274353,0.331436,8.493866
2019-01-28 22:54:08:548,-0.119827,-0.116684,-0.011612,0.560287,0.485779,8.020096
2019-01-28 22:54:08:548,-0.119827,-0.116684,-0.011612,0.524399,0.155563,8.962860
2019-01-28 22:54:08:548,0.148148,0.004745,0.105728,0.524399,0.155563,8.962860
2019-01-28 22:54:08:548,0.148148,0.004745,0.105728,0.923996,-0.602966,11.000351
2019-01-28 22:54:08:548,0.148148,0.004745,0.105728,1.317627,-1.250229,12.134552
2019-01-28 22:54:08:548,0.148148,0.004745,0.105728,1.069962,-1.335175,10.262161
2019-01-28 22:54:08:548,0.148148,0.004745,0.105728,0.922806,-1.083923,9.046616
2019-01-28 22:54:08:548,0.148148,0.004745,0.105728,0.131973,-0.075348,8.222275
2019-01-28 22:54:08:548,0.148148,0.004745,0.105728,-0.174316,0.930832,8.493866
2019-01-28 22:54:08:548,0.148148,0.004745,0.105728,0.169067,1.200027,9.467743
2019-01-28 22:54:08:548,0.148148,0.004745,0.105728,0.322205,1.118668,9.919983
2019-01-28 22:54:08:548,0.148148,0.004745,0.105728,0.349731,1.105515,9.062164
2019-01-28 22:54:08:548,0.148148,0.004745,0.105728,0.472961,0.800430,8.552490
2019-01-28 22:54:09:549,0.148148,0.004745,0.105728,0.312637,0.751373,8.788177
2019-01-28 22:54:09:549,0.148148,0.004745,0.105728,0.569870,1.085175,9.057388
2019-01-28 22:54:09:549,0.148148,0.004745,0.105728,0.689514,1.179688,9.433044
2019-01-28 22:54:09:549,0.148148,0.004745,0.105728,0.378433,0.520462,10.258575
2019-01-28 22:54:09:549,0.148148,0.004745,0.105728,0.681122,-0.409149,11.902435
2019-01-28 22:54:09:549,0.148148,0.004745,0.105728,0.961090,-0.583832,12.306839
2019-01-28 22:54:09:549,0.148148,0.004745,0.105728,1.358292,-0.153122,9.884094
2019-01-28 22:54:09:549,0.148148,0.004745,0.105728,1.127396,-0.142349,7.541519
2019-01-28 22:54:09:549,0.148148,0.004745,0.105728,0.958694,-0.879333,8.751099
2019-01-28 22:54:09:549,-0.121902,-0.073624,0.383362,0.958694,-0.879333,8.751099
2019-01-28 22:54:09:549,-0.121902,-0.073624,0.383362,1.160889,-2.189407,12.079514
2019-01-28 22:54:09:549,-0.121902,-0.073624,0.383362,1.421707,-3.549728,13.937531
2019-01-28 22:54:09:549,-0.121902,-0.073624,0.383362,1.543747,-4.101288,12.391769
2019-01-28 22:54:09:549,-0.121902,-0.073624,0.383362,1.092697,-2.554321,9.350494
2019-01-28 22:54:09:549,-0.121902,-0.073624,0.383362,0.146332,-0.507263,8.167252
2019-01-28 22:54:09:549,-0.121902,-0.073624,0.383362,-0.410004,1.061249,7.671936
2019-01-28 22:54:09:549,-0.121902,-0.073624,0.383362,-0.325058,1.986069,7.212509
2019-01-28 22:54:09:549,-0.121902,-0.073624,0.383362,-0.029541,2.700333,7.799957
2019-01-28 22:54:09:549,-0.121902,-0.073624,0.383362,0.845032,3.341599,8.654190
2019-01-28 22:54:09:549,-0.121902,-0.073624,0.383362,1.364288,3.631134,9.356476
2019-01-28 22:54:09:549,0.428299,0.000107,0.238037,1.364288,3.631134,9.356476
2019-01-28 22:54:09:549,0.428299,0.000107,0.238037,1.515030,3.667023,9.165054
2019-01-28 22:54:09:549,0.428299,0.000107,0.238037,1.095093,2.912094,9.436646
2019-01-28 22:54:09:549,0.428299,0.000107,0.238037,1.065186,2.366531,10.033646
2019-01-28 22:54:09:549,0.428299,0.000107,0.238037,1.588013,2.106903,10.787384
2019-01-28 22:54:09:549,0.428299,0.000107,0.238037,1.878738,1.080383,10.191574
2019-01-28 22:54:09:549,0.428299,0.000107,0.238037,1.951721,-0.543152,9.656784
2019-01-28 22:54:09:549,0.428299,0.000107,0.238037,2.913635,-1.968079,10.589981
2019-01-28 22:54:09:549,0.428299,0.000107,0.238037,3.227097,-2.301880,11.032654
2019-01-28 22:54:09:549,0.428299,0.000107,0.238037,2.375244,-1.494293,9.411514
2019-01-28 22:54:09:549,-0.525742,-0.066284,-0.016205,2.375244,-1.494293,9.411514
2019-01-28 22:54:09:549,-0.525742,-0.066284,-0.016205,0.666763,-0.741760,8.407730
2019-01-28 22:54:09:549,-0.525742,-0.066284,-0.016205,-0.445908,-0.491714,9.631653
2019-01-28 22:54:09:549,-0.525742,-0.066284,-0.016205,-0.739014,-0.812347,11.269547
2019-01-28 22:54:09:549,-0.525742,-0.066284,-0.016205,0.049423,-0.951126,10.910614
2019-01-28 22:54:09:549,-0.525742,-0.066284,-0.016205,0.452621,-0.821915,9.246414
2019-01-28 22:54:09:549,-0.525742,-0.066284,-0.016205,0.007553,-0.289520,7.310623
2019-01-28 22:54:09:549,-0.525742,-0.066284,-0.016205,-0.155167,0.046692,5.520782
2019-01-28 22:54:09:549,-0.525742,-0.066284,-0.016205,0.614136,0.335022,3.492874
2019-01-28 22:54:09:549,-0.525742,-0.066284,-0.016205,1.668167,1.040909,2.673325
2019-01-28 22:54:09:549,-0.525742,-0.066284,-0.016205,1.609543,1.251480,4.215500
2019-01-28 22:54:09:549,0.268433,0.560135,-0.393890,1.609543,1.251480,4.215500
2019-01-28 22:54:09:549,0.268433,0.560135,-0.393890,1.034073,-0.355316,9.654388
2019-01-28 22:54:09:549,0.268433,0.560135,-0.393890,1.641846,-2.142761,16.601944
2019-01-28 22:54:09:549,0.268433,0.560135,-0.393890,2.265182,-2.918030,20.848022
2019-01-28 22:54:09:549,0.268433,0.560135,-0.393890,1.781830,-2.312653,19.625275
2019-01-28 22:54:09:549,0.268433,0.560135,-0.393890,0.401169,-1.883133,17.749313
2019-01-28 22:54:09:549,0.268433,0.560135,-0.393890,-0.392059,-2.274353,17.091278
2019-01-28 22:54:09:549,0.268433,0.560135,-0.393890,-0.340607,-2.068573,16.378220
2019-01-28 22:54:09:549,0.268433,0.560135,-0.393890,-0.017578,-1.339966,13.201752
2019-01-28 22:54:09:549,0.268433,0.560135,-0.393890,0.090103,-0.911652,7.820282
2019-01-28 22:54:09:549,-0.326004,-0.234161,-0.771210,0.090103,-0.911652,7.820282
2019-01-28 22:54:09:549,-0.326004,-0.234161,-0.771210,-0.089371,-0.844650,2.684097
2019-01-28 22:54:09:549,-0.326004,-0.234161,-0.771210,-0.100143,-1.322021,0.796158
2019-01-28 22:54:09:549,-0.326004,-0.234161,-0.771210,0.468170,-1.988419,2.134949
2019-01-28 22:54:09:549,-0.326004,-0.234161,-0.771210,1.038864,-2.347336,3.759674
2019-01-28 22:54:10:5410,-0.326004,-0.234161,-0.771210,0.791199,-2.159500,4.958466
2019-01-28 22:54:10:5410,-0.326004,-0.234161,-0.771210,-0.164749,-1.852020,6.644211
2019-01-28 22:54:10:5410,-0.326004,-0.234161,-0.771210,-0.962738,-1.445251,8.846817
2019-01-28 22:54:10:5410,-0.326004,-0.234161,-0.771210,-0.892166,-1.119827,11.201355
2019-01-28 22:54:10:5410,-0.326004,-0.234161,-0.771210,-0.280792,-1.044449,13.145523
2019-01-28 22:54:10:5410,-0.326004,-0.234161,-0.771210,0.313828,-0.757309,13.116806
2019-01-28 22:54:10:5410,-0.168884,-0.089813,-0.364014,0.313828,-0.757309,13.116806
2019-01-28 22:54:10:5410,-0.168884,-0.089813,-0.364014,0.520813,0.037125,11.264755
2019-01-28 22:54:10:5410,-0.168884,-0.089813,-0.364014,0.597382,0.949982,9.513214
2019-01-28 22:54:10:5410,-0.168884,-0.089813,-0.364014,0.670364,1.444092,9.346909
2019-01-28 22:54:10:5410,-0.168884,-0.089813,-0.364014,0.739761,0.932022,10.581604
2019-01-28 22:54:10:5410,-0.168884,-0.089813,-0.364014,0.938354,0.080185,11.804337
2019-01-28 22:54:10:5410,-0.168884,-0.089813,-0.364014,1.559296,-0.068176,11.146317
2019-01-28 22:54:10:5410,-0.168884,-0.089813,-0.364014,1.968475,0.264435,9.309814
2019-01-28 22:54:10:5410,-0.168884,-0.089813,-0.364014,1.455215,0.756149,8.694870
2019-01-28 22:54:10:5410,-0.168884,-0.089813,-0.364014,0.945541,1.326843,8.771439
2019-01-28 22:54:10:5410,0.621323,-0.277344,0.249344,0.945541,1.326843,8.771439
2019-01-28 22:54:10:5410,0.621323,-0.277344,0.249344,0.835464,1.852081,8.802551
2019-01-28 22:54:10:5410,0.621323,-0.277344,0.249344,0.949127,1.737213,8.678116
2019-01-28 22:54:10:5410,0.621323,-0.277344,0.249344,0.956314,1.094742,9.179413
2019-01-28 22:54:10:5410,0.621323,-0.277344,0.249344,0.994598,0.300323,10.558868
2019-01-28 22:54:10:5410,0.621323,-0.277344,0.249344,1.145340,0.278793,11.514801
2019-01-28 22:54:10:5410,0.621323,-0.277344,0.249344,1.280533,1.305313,11.542328
2019-01-28 22:54:10:5410,0.621323,-0.277344,0.249344,1.550919,2.055466,10.660568
2019-01-28 22:54:10:5410,0.621323,-0.277344,0.249344,1.519821,1.697739,10.886688
2019-01-28 22:54:10:5410,0.621323,-0.277344,0.249344,1.933777,0.423553,12.869141
2019-01-28 22:54:10:5410,0.621323,-0.277344,0.249344,2.462585,-1.202377,14.897064
2019-01-28 22:54:10:5410,-0.489395,-0.486008,0.392395,2.462585,-1.202377,14.897064
2019-01-28 22:54:10:5410,-0.489395,-0.486008,0.392395,2.754517,-2.021912,14.235443
2019-01-28 22:54:10:5410,-0.489395,-0.486008,0.392395,2.350128,-1.856812,10.739532
2019-01-28 22:54:10:5410,-0.489395,-0.486008,0.392395,1.497086,-1.055222,6.645416
2019-01-28 22:54:10:5410,-0.489395,-0.486008,0.392395,0.671555,-0.246445,3.473724
2019-01-28 22:54:10:5410,-0.489395,-0.486008,0.392395,-0.098938,0.160339,1.841827
2019-01-28 22:54:10:5410,-0.489395,-0.486008,0.392395,-0.666031,-0.078949,3.178223
2019-01-28 22:54:10:5410,-0.489395,-0.486008,0.392395,-0.354965,-0.606567,6.043610
2019-01-28 22:54:10:5410,-0.489395,-0.486008,0.392395,0.530380,-0.940369,9.190186
2019-01-28 22:54:10:5410,-0.489395,-0.486008,0.392395,1.438461,-0.641266,10.152100
2019-01-28 22:54:10:5410,-0.023499,0.123199,0.327835,1.438461,-0.641266,10.152100
2019-01-28 22:54:10:5410,-0.023499,0.123199,0.327835,1.920609,-0.400772,9.491669
2019-01-28 22:54:10:5410,-0.023499,0.123199,0.327835,2.589401,-0.693893,8.984406
2019-01-28 22:54:10:5410,-0.023499,0.123199,0.327835,3.212738,-1.381836,9.490479
2019-01-28 22:54:10:5410,-0.023499,0.123199,0.327835,3.471161,-1.767075,10.756287
2019-01-28 22:54:10:5410,-0.023499,0.123199,0.327835,2.851425,-1.444046,11.538727
2019-01-28 22:54:10:5410,-0.023499,0.123199,0.327835,1.972061,-0.350525,11.032654
2019-01-28 22:54:10:5410,-0.023499,0.123199,0.327835,1.213531,0.996643,9.589783
2019-01-28 22:54:10:5410,-0.023499,0.123199,0.327835,0.973053,1.606812,8.325180
2019-01-28 22:54:10:5410,-0.023499,0.123199,0.327835,1.398972,1.278992,8.119385
2019-01-28 22:54:10:5410,-0.023499,0.123199,0.327835,1.942139,0.659241,8.788193
2019-01-28 22:54:10:5410,0.598709,0.276764,0.045624,1.942139,0.659241,8.788193
2019-01-28 22:54:10:5410,0.598709,0.276764,0.045624,2.438660,0.038315,8.949707
2019-01-28 22:54:10:5410,0.598709,0.276764,0.045624,2.543945,-0.808746,8.747513
2019-01-28 22:54:10:5410,0.598709,0.276764,0.045624,2.120422,-0.988220,8.596756
2019-01-28 22:54:10:5410,0.598709,0.276764,0.045624,1.182434,-0.342163,8.602753
2019-01-28 22:54:10:5410,0.598709,0.276764,0.045624,0.748138,1.235916,7.908829
2019-01-28 22:54:10:5410,0.598709,0.276764,0.045624,0.919220,2.678787,6.218292
2019-01-28 22:54:10:5410,0.598709,0.276764,0.045624,1.401367,2.481384,6.529358
2019-01-28 22:54:10:5410,0.598709,0.276764,0.045624,1.553314,0.247681,11.188187
2019-01-28 22:54:10:5410,0.598709,0.276764,0.045624,2.699478,-2.566284,19.036652
2019-01-28 22:54:11:5411,-0.309265,-0.011383,-0.147766,2.699478,-2.566284,19.036652
2019-01-28 22:54:11:5411,-0.309265,-0.011383,-0.147766,3.636261,-3.180038,22.902252
2019-01-28 22:54:11:5411,-0.309265,-0.011383,-0.147766,2.625290,-1.495499,18.570053
2019-01-28 22:54:11:5411,-0.309265,-0.011383,-0.147766,0.697876,0.224945,13.311813
2019-01-28 22:54:11:5411,-0.309265,-0.011383,-0.147766,-0.540405,1.406998,10.243011
2019-01-28 22:54:11:5411,-0.309265,-0.011383,-0.147766,-0.978302,1.873611,8.962860
2019-01-28 22:54:11:5411,-0.309265,-0.011383,-0.147766,-0.454269,1.826950,7.773636
2019-01-28 22:54:11:5411,-0.309265,-0.011383,-0.147766,0.310242,1.360352,6.743515
2019-01-28 22:54:11:5411,-0.309265,-0.011383,-0.147766,1.090302,0.759750,6.290085
2019-01-28 22:54:11:5411,-0.309265,-0.011383,-0.147766,1.549728,0.544388,6.976822
2019-01-28 22:54:11:5411,-0.309265,-0.011383,-0.147766,2.073746,0.716675,7.542725
2019-01-28 22:54:11:5411,0.295731,0.089966,-0.075806,2.073746,0.716675,7.542725
2019-01-28 22:54:11:5411,0.295731,0.089966,-0.075806,2.137161,0.686768,7.888489
2019-01-28 22:54:11:5411,0.295731,0.089966,-0.075806,1.766281,0.588669,8.932953
2019-01-28 22:54:11:5411,0.295731,0.089966,-0.075806,1.948120,0.437912,9.984589
2019-01-28 22:54:11:5411,0.295731,0.089966,-0.075806,2.366867,-0.321823,10.155685
2019-01-28 22:54:11:5411,0.295731,0.089966,-0.075806,2.149124,-0.933182,10.284897
2019-01-28 22:54:11:5411,0.295731,0.089966,-0.075806,1.694489,-0.979843,9.751297
2019-01-28 22:54:11:5411,0.295731,0.089966,-0.075806,1.566467,-1.270569,8.745117
2019-01-28 22:54:11:5411,0.295731,0.089966,-0.075806,1.720810,-1.770676,7.701843
2019-01-28 22:54:11:5411,0.295731,0.089966,-0.075806,1.744736,-1.701279,6.936142
2019-01-28 22:54:11:5411,-0.229477,0.218185,-0.570175,1.744736,-1.701279,6.936142
2019-01-28 22:54:11:5411,-0.229477,0.218185,-0.570175,1.611938,-1.231094,6.635849
2019-01-28 22:54:11:5411,-0.229477,0.218185,-0.570175,1.639450,-1.104263,6.792572
2019-01-28 22:54:11:5411,-0.229477,0.218185,-0.570175,1.404968,-0.946335,7.767654
2019-01-28 22:54:11:5411,-0.229477,0.218185,-0.570175,1.084320,-0.620926,9.490479
2019-01-28 22:54:11:5411,-0.229477,0.218185,-0.570175,0.932373,-0.558701,12.649002
2019-01-28 22:54:11:5411,-0.229477,0.218185,-0.570175,1.067566,-3.834488,21.066956
2019-01-28 22:54:11:5411,-0.229477,0.218185,-0.570175,3.765488,-2.691910,14.723587
2019-01-28 22:54:11:5411,-0.229477,0.218185,-0.570175,0.472946,1.186859,8.210327
2019-01-28 22:54:11:5411,-0.229477,0.218185,-0.570175,0.370056,2.426346,9.406738
2019-01-28 22:54:11:5411,-0.229477,0.218185,-0.570175,0.337769,2.039902,10.799347
2019-01-28 22:54:11:5411,-0.289581,-0.130554,-0.392731,0.337769,2.039902,10.799347
2019-01-28 22:54:11:5411,-0.289581,-0.130554,-0.392731,0.088898,1.702515,10.119797
2019-01-28 22:54:11:5411,-0.289581,-0.130554,-0.392731,0.215729,0.786072,9.021484
2019-01-28 22:54:11:5411,-0.289581,-0.130554,-0.392731,0.971863,-0.159103,7.872940
2019-01-28 22:54:11:5411,-0.289581,-0.130554,-0.392731,1.263779,-0.890106,6.072342
2019-01-28 22:54:11:5411,-0.289581,-0.130554,-0.392731,2.186218,-1.313644,4.476318
2019-01-28 22:54:11:5411,-0.289581,-0.130554,-0.392731,2.695892,-1.863998,4.410522
2019-01-28 22:54:11:5411,-0.289581,-0.130554,-0.392731,2.299881,-2.032684,5.757675
2019-01-28 22:54:11:5411,-0.289581,-0.130554,-0.392731,1.446838,-1.902283,7.947113
2019-01-28 22:54:11:5411,-0.289581,-0.130554,-0.392731,0.889297,-1.623520,10.734756
2019-01-28 22:54:11:5411,-0.442795,-0.029449,-0.535233,0.889297,-1.623520,10.734756
2019-01-28 22:54:11:5411,-0.442795,-0.029449,-0.535233,0.761292,-1.351929,12.937347
2019-01-28 22:54:11:5411,-0.442795,-0.029449,-0.535233,0.918015,-1.363892,13.086899
2019-01-28 22:54:11:5411,-0.442795,-0.029449,-0.535233,1.401367,-1.365082,12.148911
2019-01-28 22:54:11:5411,-0.442795,-0.029449,-0.535233,1.367874,-1.073166,11.032654
2019-01-28 22:54:11:5411,-0.442795,-0.029449,-0.535233,1.084320,-0.623306,9.934357
2019-01-28 22:54:11:5411,-0.442795,-0.029449,-0.535233,1.011337,-0.472565,9.014313
2019-01-28 22:54:11:5411,-0.442795,-0.029449,-0.535233,0.998169,-0.667587,9.032257
2019-01-28 22:54:11:5411,-0.442795,-0.029449,-0.535233,1.154907,-0.635269,9.430664
2019-01-28 22:54:11:5411,-0.442795,-0.029449,-0.535233,1.010147,-0.180634,9.336136
2019-01-28 22:54:11:5411,-0.442795,-0.029449,-0.535233,0.712234,0.116074,8.478317
2019-01-28 22:54:12:5412,0.908722,0.216965,-0.349167,0.712234,0.116074,8.478317
2019-01-28 22:54:12:5412,0.908722,0.216965,-0.349167,0.427490,0.311096,7.447006
2019-01-28 22:54:12:5412,0.908722,0.216965,-0.349167,0.216919,0.692749,7.046204
2019-01-28 22:54:12:5412,0.908722,0.216965,-0.349167,0.268372,1.089966,6.737534
2019-01-28 22:54:12:5412,0.908722,0.216965,-0.349167,0.568665,1.515884,6.075928
2019-01-28 22:54:12:5412,0.908722,0.216965,-0.349167,0.590195,1.365128,6.585587
2019-01-28 22:54:12:5412,0.908722,0.216965,-0.349167,0.851028,0.746582,9.023880
2019-01-28 22:54:12:5412,0.908722,0.216965,-0.349167,1.402573,0.618576,12.203934
2019-01-28 22:54:12:5412,0.908722,0.216965,-0.349167,1.702866,1.412994,13.109634
2019-01-28 22:54:12:5412,0.908722,0.216965,-0.349167,1.300873,2.360550,12.176422
2019-01-28 22:54:12:5412,-0.676926,-0.424988,0.178970,1.300873,2.360550,12.176422
2019-01-28 22:54:12:5412,-0.676926,-0.424988,0.178970,0.855804,3.409790,12.863159
2019-01-28 22:54:12:5412,-0.676926,-0.424988,0.178970,1.121414,3.663437,14.844421
2019-01-28 22:54:12:5412,-0.676926,-0.424988,0.178970,1.236267,2.117676,17.716995
2019-01-28 22:54:12:5412,-0.676926,-0.424988,0.178970,1.987610,-0.472565,19.917206
2019-01-28 22:54:12:5412,-0.676926,-0.424988,0.178970,2.665985,-0.859009,18.717209
2019-01-28 22:54:12:5412,-0.676926,-0.424988,0.178970,2.241257,0.528839,14.964066
2019-01-28 22:54:12:5412,-0.676926,-0.424988,0.178970,0.754105,0.014389,11.988586
2019-01-28 22:54:12:5412,-0.676926,-0.424988,0.178970,0.530380,-1.875946,10.855591
2019-01-28 22:54:12:5412,-0.676926,-0.424988,0.178970,1.838058,-2.915634,10.063553
2019-01-28 22:54:12:5412,-0.676926,-0.424988,0.178970,2.533173,-2.569870,8.991577
2019-01-28 22:54:12:5412,0.072220,-0.037155,-0.049240,2.533173,-2.569870,8.991577
2019-01-28 22:54:12:5412,0.072220,-0.037155,-0.049240,1.651428,-1.606766,6.199158
2019-01-28 22:54:12:5412,0.072220,-0.037155,-0.049240,0.092499,-0.964279,3.159073
2019-01-28 22:54:12:5412,0.072220,-0.037155,-0.049240,-1.014191,-1.119827,2.115799
2019-01-28 22:54:12:5412,0.072220,-0.037155,-0.049240,-0.600235,-1.762299,4.063553
2019-01-28 22:54:12:5412,0.072220,-0.037155,-0.049240,-0.072617,-1.667770,5.764862
2019-01-28 22:54:12:5412,0.072220,-0.037155,-0.049240,-0.292755,-1.113846,6.427673
2019-01-28 22:54:12:5412,0.072220,-0.037155,-0.049240,-0.317871,-0.447449,6.206329
2019-01-28 22:54:12:5412,0.072220,-0.037155,-0.049240,-0.106110,0.044296,6.421692
2019-01-28 22:54:12:5412,0.072220,-0.037155,-0.049240,0.414337,0.612595,7.900452
2019-01-28 22:54:12:5412,1.107437,0.176208,0.737778,0.414337,0.612595,7.900452
2019-01-28 22:54:12:5412,1.107437,0.176208,0.737778,0.760101,0.710693,9.349304
2019-01-28 22:54:12:5412,1.107437,0.176208,0.737778,0.756500,-0.125595,9.862564
2019-01-28 22:54:12:5412,1.107437,0.176208,0.737778,1.121414,-1.031296,11.031448
2019-01-28 22:54:12:5412,1.107437,0.176208,0.737778,1.392990,-1.231094,11.568649
2019-01-28 22:54:12:5412,1.107437,0.176208,0.737778,1.001770,-0.367279,10.826874
2019-01-28 22:54:12:5412,1.107437,0.176208,0.737778,0.256409,1.113892,8.924576
2019-01-28 22:54:12:5412,1.107437,0.176208,0.737778,-0.319077,2.359344,7.766449
2019-01-28 22:54:12:5412,1.107437,0.176208,0.737778,-0.034332,2.914490,7.939926
2019-01-28 22:54:12:5412,1.107437,0.176208,0.737778,0.514832,2.792450,8.034454
2019-01-28 22:54:12:5412,1.107437,0.176208,0.737778,1.297287,1.765930,8.916199
2019-01-28 22:54:12:5412,1.107437,0.176208,0.737778,1.817719,0.985870,10.301651
2019-01-28 22:54:12:5412,1.107437,0.176208,0.737778,1.638260,1.385468,11.805542
2019-01-28 22:54:12:5412,1.107437,0.176208,0.737778,0.786407,2.043503,12.548508
2019-01-28 22:54:12:5412,1.107437,0.176208,0.737778,-0.219772,2.252869,14.053589
2019-01-28 22:54:12:5412,1.107437,0.176208,0.737778,-0.453079,2.281586,15.364853
2019-01-28 22:54:12:5412,1.107437,0.176208,0.737778,0.344940,2.030334,14.544128
2019-01-28 22:54:12:5412,1.107437,0.176208,0.737778,1.254211,1.427353,11.618896
2019-01-28 22:54:12:5412,1.107437,0.176208,0.737778,1.631073,0.842300,8.398163
2019-01-28 22:54:12:5412,1.107437,0.176208,0.737778,1.761490,0.143600,6.590378
2019-01-28 22:54:12:5412,-0.121490,-0.127258,0.730453,1.761490,0.143600,6.590378
2019-01-28 22:54:12:5412,-0.121490,-0.127258,0.730453,2.051025,-0.261993,6.654984
2019-01-28 22:54:12:5412,-0.121490,-0.127258,0.730453,2.110840,-0.297882,7.028259
2019-01-28 22:54:12:5412,-0.121490,-0.127258,0.730453,2.065384,0.083771,7.311813
2019-01-28 22:54:12:5412,-0.121490,-0.127258,0.730453,1.696884,0.488159,7.596558
2019-01-28 22:54:12:5412,-0.121490,-0.127258,0.730453,1.293701,0.824356,8.072723
2019-01-28 22:54:12:5412,-0.121490,-0.127258,0.730453,1.554504,0.982285,9.041824
2019-01-28 22:54:12:5412,-0.121490,-0.127258,0.730453,2.003174,0.520462,10.253784
2019-01-28 22:54:12:5412,-0.121490,-0.127258,0.730453,2.237656,-0.153122,11.477722
2019-01-28 22:54:12:5412,-0.121490,-0.127258,0.730453,2.527191,-0.440262,12.128571
2019-01-28 22:54:12:5412,-0.121490,-0.127258,0.730453,2.451813,-0.066986,11.508820
2019-01-28 22:54:13:5413,-0.179565,-0.193405,0.628250,2.451813,-0.066986,11.508820
2019-01-28 22:54:13:5413,-0.179565,-0.193405,0.628250,1.649033,0.991852,9.778824
2019-01-28 22:54:13:5413,-0.179565,-0.193405,0.628250,0.823502,2.091354,7.880112
2019-01-28 22:54:13:5413,-0.179565,-0.193405,0.628250,0.309052,2.897736,6.424072
2019-01-28 22:54:13:5413,-0.179565,-0.193405,0.628250,0.340149,3.244690,5.949112
2019-01-28 22:54:13:5413,-0.179565,-0.193405,0.628250,0.897675,3.013779,6.830856
2019-01-28 22:54:13:5413,-0.179565,-0.193405,0.628250,1.506653,2.632126,8.708023
2019-01-28 22:54:13:5413,-0.179565,-0.193405,0.628250,1.597580,2.286377,10.506226
2019-01-28 22:54:13:5413,-0.179565,-0.193405,0.628250,1.967270,1.932236,11.916809
2019-01-28 22:54:13:5413,-0.179565,-0.193405,0.628250,2.196991,1.683380,12.213516
2019-01-28 22:54:13:5413,0.369156,0.143280,0.489655,2.196991,1.683380,12.213516
2019-01-28 22:54:13:5413,0.369156,0.143280,0.489655,2.368073,1.587662,12.063965
2019-01-28 22:54:13:5413,0.369156,0.143280,0.489655,2.158707,1.501526,11.636841
2019-01-28 22:54:13:5413,0.369156,0.143280,0.489655,1.896683,1.898727,10.642624
2019-01-28 22:54:13:5413,0.369156,0.143280,0.489655,1.907455,1.940598,10.028870
2019-01-28 22:54:13:5413,0.369156,0.143280,0.489655,1.915833,1.549377,10.101837
2019-01-28 22:54:13:5413,0.369156,0.143280,0.489655,1.561691,1.535019,10.457184
2019-01-28 22:54:13:5413,0.369156,0.143280,0.489655,1.073563,1.945389,10.320786
2019-01-28 22:54:13:5413,0.369156,0.143280,0.489655,0.606949,2.857056,8.958069
2019-01-28 22:54:13:5413,0.369156,0.143280,0.489655,0.377243,3.408600,6.605927
2019-01-28 22:54:13:5413,0.369156,0.143280,0.489655,0.683533,3.961334,4.829269
2019-01-28 22:54:13:5413,0.365494,0.239182,0.120270,0.683533,3.961334,4.829269
2019-01-28 22:54:13:5413,0.365494,0.239182,0.120270,0.551910,4.152771,5.817505
2019-01-28 22:54:13:5413,0.365494,0.239182,0.120270,0.657211,3.574905,8.709229
2019-01-28 22:54:13:5413,0.365494,0.239182,0.120270,2.659988,2.416779,11.902435
2019-01-28 22:54:13:5413,0.365494,0.239182,0.120270,3.860001,1.868820,12.714813
2019-01-28 22:54:13:5413,0.365494,0.239182,0.120270,3.454407,1.587662,11.530365
2019-01-28 22:54:13:5413,0.365494,0.239182,0.120270,2.382431,2.364136,10.585190
2019-01-28 22:54:13:5413,0.365494,0.239182,0.120270,1.412140,3.236313,10.500259
2019-01-28 22:54:13:5413,0.365494,0.239182,0.120270,0.527985,2.925247,10.690491
2019-01-28 22:54:13:5413,0.365494,0.239182,0.120270,0.245636,2.343796,10.282501
2019-01-28 22:54:13:5413,-0.088913,-0.087555,-0.023529,0.245636,2.343796,10.282501
2019-01-28 22:54:13:5413,-0.088913,-0.087555,-0.023529,1.597580,2.467026,9.027466
2019-01-28 22:54:13:5413,-0.088913,-0.087555,-0.023529,1.705261,2.870224,7.257980
2019-01-28 22:54:13:5413,-0.088913,-0.087555,-0.023529,1.042450,2.993454,6.343918
2019-01-28 22:54:13:5413,-0.088913,-0.087555,-0.023529,1.083130,2.682388,6.462357
2019-01-28 22:54:13:5413,-0.088913,-0.087555,-0.023529,1.637054,2.182281,7.253189
2019-01-28 22:54:13:5413,-0.088913,-0.087555,-0.023529,2.118011,2.173904,8.294067
2019-01-28 22:54:13:5413,-0.088913,-0.087555,-0.023529,2.299881,2.477798,8.314407
2019-01-28 22:54:13:5413,-0.088913,-0.087555,-0.023529,1.789001,2.849869,7.924377
2019-01-28 22:54:13:5413,-0.088913,-0.087555,-0.023529,1.264984,3.067627,8.504639
2019-01-28 22:54:13:5413,-0.323975,-0.029572,-0.025848,1.264984,3.067627,8.504639
2019-01-28 22:54:13:5413,-0.323975,-0.029572,-0.025848,0.464584,3.083176,9.482101
2019-01-28 22:54:13:5413,-0.323975,-0.029572,-0.025848,0.342545,2.898941,11.139130
2019-01-28 22:54:13:5413,-0.323975,-0.029572,-0.025848,0.592590,2.480179,12.062759
2019-01-28 22:54:13:5413,-0.323975,-0.029572,-0.025848,1.410934,1.721664,12.248199
2019-01-28 22:54:13:5413,-0.323975,-0.029572,-0.025848,2.445847,0.865036,11.348511
2019-01-28 22:54:13:5413,-0.323975,-0.029572,-0.025848,2.740158,0.735809,9.784790
2019-01-28 22:54:13:5413,-0.323975,-0.029572,-0.025848,2.681534,1.246689,7.991379
2019-01-28 22:54:13:5413,-0.323975,-0.029572,-0.025848,2.139557,1.719269,6.205139
2019-01-28 22:54:13:5413,-0.323975,-0.029572,-0.025848,1.553314,2.414383,5.127167
2019-01-28 22:54:13:5413,-0.323975,-0.029572,-0.025848,1.711243,3.339218,5.170242
2019-01-28 22:54:14:5414,-0.108719,-0.113937,0.132370,1.711243,3.339218,5.170242
2019-01-28 22:54:14:5414,-0.108719,-0.113937,0.132370,2.041458,3.725647,6.406128
2019-01-28 22:54:14:5414,-0.108719,-0.113937,0.132370,2.252014,2.122452,8.770233
2019-01-28 22:54:14:5414,-0.108719,-0.113937,0.132370,2.839462,-0.302673,12.436050
2019-01-28 22:54:14:5414,-0.108719,-0.113937,0.132370,4.011932,-1.014542,15.299057
2019-01-28 22:54:14:5414,-0.108719,-0.113937,0.132370,4.032272,-0.721420,14.181610
2019-01-28 22:54:14:5414,-0.108719,-0.113937,0.132370,2.201767,0.116089,11.135544
2019-01-28 22:54:14:5414,-0.108719,-0.113937,0.132370,1.022110,1.506317,9.516800
2019-01-28 22:54:14:5414,-0.108719,-0.113937,0.132370,1.078339,2.128448,9.094467
2019-01-28 22:54:14:5414,-0.108719,-0.113937,0.132370,1.920609,1.481186,9.821884
2019-01-28 22:54:14:5414,-0.053497,-0.073257,-0.292236,1.920609,1.481186,9.821884
2019-01-28 22:54:14:5414,-0.053497,-0.073257,-0.292236,3.257004,-0.010742,11.994568
2019-01-28 22:54:14:5414,-0.053497,-0.073257,-0.292236,4.543152,-1.061203,13.083298
2019-01-28 22:54:14:5414,-0.053497,-0.073257,-0.292236,4.100479,-0.434280,11.390381
2019-01-28 22:54:14:5414,-0.053497,-0.073257,-0.292236,2.274750,1.074402,8.795364
2019-01-28 22:54:14:5414,-0.053497,-0.073257,-0.292236,0.603363,2.063828,6.299652
2019-01-28 22:54:14:5414,-0.053497,-0.073257,-0.292236,-0.137222,2.371307,4.911819
2019-01-28 22:54:14:5414,-0.053497,-0.073257,-0.292236,0.396393,1.826950,4.934540
2019-01-28 22:54:14:5414,-0.053497,-0.073257,-0.292236,1.172852,1.319672,5.356873
2019-01-28 22:54:14:5414,-0.053497,-0.073257,-0.292236,1.806961,0.988266,5.469345
2019-01-28 22:54:14:5414,-0.053497,-0.073257,-0.292236,2.283127,0.601822,6.449203
2019-01-28 22:54:14:5414,-0.518661,0.125763,-0.266266,2.283127,0.601822,6.449203
2019-01-28 22:54:14:5414,-0.518661,0.125763,-0.266266,2.772461,0.217773,8.608719
2019-01-28 22:54:14:5414,-0.518661,0.125763,-0.266266,3.160095,-0.205765,11.057770
2019-01-28 22:54:14:5414,-0.518661,0.125763,-0.266266,2.868164,-0.435471,14.054794
2019-01-28 22:54:14:5414,-0.518661,0.125763,-0.266266,2.324997,-0.204575,16.640244
2019-01-28 22:54:14:5414,-0.518661,0.125763,-0.266266,1.611938,0.478592,16.818497
2019-01-28 22:54:14:5414,-0.518661,0.125763,-0.266266,0.915619,2.385666,14.521393
2019-01-28 22:54:14:5414,-0.518661,0.125763,-0.266266,0.711044,4.137207,11.164261
2019-01-28 22:54:14:5414,-0.518661,0.125763,-0.266266,0.323395,3.787872,9.129166
2019-01-28 22:54:14:5414,-0.518661,0.125763,-0.266266,0.384415,1.435715,9.373230
2019-01-28 22:54:14:5414,0.764023,-0.101532,0.133774,0.384415,1.435715,9.373230
2019-01-28 22:54:14:5414,0.764023,-0.101532,0.133774,1.720810,-0.738174,10.499054
2019-01-28 22:54:14:5414,0.764023,-0.101532,0.133774,3.016525,-1.403366,9.784790
2019-01-28 22:54:14:5414,0.764023,-0.101532,0.133774,2.869370,-0.867386,7.508026
2019-01-28 22:54:14:5414,0.764023,-0.101532,0.133774,1.370255,0.366135,5.472931
2019-01-28 22:54:14:5414,0.764023,-0.101532,0.133774,-0.003220,1.518265,3.806335
2019-01-28 22:54:14:5414,0.764023,-0.101532,0.133774,0.365280,2.603409,2.509415
2019-01-28 22:54:14:5414,0.764023,-0.101532,0.133774,1.597580,3.899124,1.997360
2019-01-28 22:54:14:5414,0.764023,-0.101532,0.133774,1.129776,2.952774,4.464355
2019-01-28 22:54:14:5414,0.764023,-0.101532,0.133774,1.439651,-1.065979,11.629654
2019-01-28 22:54:14:5414,0.764023,-0.101532,0.133774,4.920013,-5.660202,21.847015
2019-01-28 22:54:14:5414,-0.090698,-0.001968,0.104019,4.920013,-5.660202,21.847015
2019-01-28 22:54:14:5414,-0.090698,-0.001968,0.104019,6.762482,-7.351929,24.505447
2019-01-28 22:54:14:5414,-0.090698,-0.001968,0.104019,4.013138,-4.698288,17.340134
2019-01-28 22:54:14:5414,-0.090698,-0.001968,0.104019,0.378448,-0.165085,9.881714
2019-01-28 22:54:14:5414,-0.090698,-0.001968,0.104019,-1.795456,2.679993,4.056381
2019-01-28 22:54:14:5414,-0.090698,-0.001968,0.104019,-1.875610,3.182480,1.040222
2019-01-28 22:54:14:5414,-0.090698,-0.001968,0.104019,-0.700729,1.298141,2.539337
2019-01-28 22:54:14:5414,-0.090698,-0.001968,0.104019,0.261185,-0.910446,6.244614
2019-01-28 22:54:14:5414,-0.090698,-0.001968,0.104019,1.656204,-1.925003,8.804932
2019-01-28 22:54:14:5414,-0.090698,-0.001968,0.104019,2.839447,-1.381836,7.706635
2019-01-28 22:54:14:5414,-0.450180,0.380600,0.084290,2.839447,-1.381836,7.706635
2019-01-28 22:54:14:5414,-0.450180,0.380600,0.084290,2.616928,0.011993,4.670135
2019-01-28 22:54:14:5414,-0.450180,0.380600,0.084290,0.977844,1.227539,4.195160
2019-01-28 22:54:15:5415,-0.450180,0.380600,0.084290,-0.758163,1.988464,6.981598
2019-01-28 22:54:15:5415,-0.450180,0.380600,0.084290,-0.335831,1.939407,11.003937
2019-01-28 22:54:15:5415,-0.450180,0.380600,0.084290,0.718216,1.539810,13.707825
2019-01-28 22:54:15:5415,-0.450180,0.380600,0.084290,2.120407,0.351776,14.206741
2019-01-28 22:54:15:5415,-0.450180,0.380600,0.084290,2.463791,-0.646042,13.992584
2019-01-28 22:54:15:5415,-0.450180,0.380600,0.084290,1.428894,0.119675,13.882507
2019-01-28 22:54:15:5415,-0.450180,0.380600,0.084290,1.055603,1.520660,13.162262
2019-01-28 22:54:15:5415,-0.450180,0.380600,0.084290,1.385818,2.195450,12.358276
2019-01-28 22:54:15:5415,-0.174744,-0.283752,0.124481,1.385818,2.195450,12.358276
2019-01-28 22:54:15:5415,-0.174744,-0.283752,0.124481,2.381226,1.677399,12.281708
2019-01-28 22:54:15:5415,-0.174744,-0.283752,0.124481,3.024902,-0.285919,13.645615
2019-01-28 22:54:15:5415,-0.174744,-0.283752,0.124481,3.241455,-2.953918,15.588593
2019-01-28 22:54:15:5415,-0.174744,-0.283752,0.124481,3.213928,-4.280731,16.416504
2019-01-28 22:54:15:5415,-0.174744,-0.283752,0.124481,2.423111,-3.669373,14.195969
2019-01-28 22:54:15:5415,-0.174744,-0.283752,0.124481,1.196793,-1.610352,9.362457
2019-01-28 22:54:15:5415,-0.174744,-0.283752,0.124481,0.086517,0.303909,4.257370
2019-01-28 22:54:15:5415,-0.174744,-0.283752,0.124481,-0.821564,1.062439,0.908630
2019-01-28 22:54:15:5415,-0.174744,-0.283752,0.124481,-0.938828,0.197433,1.193359
2019-01-28 22:54:15:5415,-0.129791,0.153427,-0.162796,-0.938828,0.197433,1.193359
2019-01-28 22:54:15:5415,-0.129791,0.153427,-0.162796,-0.012802,-1.241867,4.227463
2019-01-28 22:54:15:5415,-0.129791,0.153427,-0.162796,1.227890,-2.015930,7.447006
2019-01-28 22:54:15:5415,-0.129791,0.153427,-0.162796,2.516418,-2.208557,9.120789
2019-01-28 22:54:15:5415,-0.129791,0.153427,-0.162796,2.703064,-2.305466,9.278717
2019-01-28 22:54:15:5415,-0.129791,0.153427,-0.162796,2.260391,-2.365295,9.478516
2019-01-28 22:54:15:5415,-0.129791,0.153427,-0.162796,1.835663,-2.216934,9.879318
2019-01-28 22:54:15:5415,-0.129791,0.153427,-0.162796,1.732773,-2.257614,9.439026
2019-01-28 22:54:15:5415,-0.129791,0.153427,-0.162796,2.000778,-2.573471,8.502243
2019-01-28 22:54:15:5415,-0.129791,0.153427,-0.162796,1.720810,-4.004379,9.372040
2019-01-28 22:54:15:5415,-0.129791,0.153427,-0.162796,1.994797,-8.756516,16.642624
2019-01-28 22:54:15:5415,1.804321,0.331070,-0.647018,1.994797,-8.756516,16.642624
2019-01-28 22:54:15:5415,1.804321,0.331070,-0.647018,2.764084,-8.694305,14.022491
2019-01-28 22:54:15:5415,1.804321,0.331070,-0.647018,0.584229,-3.142960,6.570038
2019-01-28 22:54:15:5415,1.804321,0.331070,-0.647018,-0.767731,0.547989,5.100845
2019-01-28 22:54:15:5415,1.804321,0.331070,-0.647018,-1.407806,3.274597,6.290085
2019-01-28 22:54:15:5415,1.804321,0.331070,-0.647018,0.504059,4.103714,7.653992
2019-01-28 22:54:15:5415,1.804321,0.331070,-0.647018,2.162292,3.555756,7.073730
2019-01-28 22:54:15:5415,1.804321,0.331070,-0.647018,1.903854,2.785263,6.851196
2019-01-28 22:54:15:5415,1.804321,0.331070,-0.647018,-0.034332,2.620163,7.089279
2019-01-28 22:54:15:5415,1.804321,0.331070,-0.647018,-2.591064,2.910904,5.894073
2019-01-28 22:54:15:5415,-0.604858,0.304916,0.274750,-2.591064,2.910904,5.894073
2019-01-28 22:54:15:5415,-0.604858,0.304916,0.274750,-2.924866,2.577103,5.532745
2019-01-28 22:54:15:5415,-0.604858,0.304916,0.274750,-2.023956,1.956161,9.194962
2019-01-28 22:54:15:5415,-0.604858,0.304916,0.274750,-1.056061,1.887970,12.566452
2019-01-28 22:54:15:5415,-0.604858,0.304916,0.274750,-0.347794,1.873611,12.402542
2019-01-28 22:54:15:5415,-0.604858,0.304916,0.274750,0.656006,1.654663,9.480911
2019-01-28 22:54:15:5415,-0.604858,0.304916,0.274750,1.731583,2.081772,6.342728
2019-01-28 22:54:15:5415,-0.604858,0.304916,0.274750,1.972061,2.672806,6.531754
2019-01-28 22:54:15:5415,-0.604858,0.304916,0.274750,1.637054,3.390656,9.736938
2019-01-28 22:54:15:5415,-0.604858,0.304916,0.274750,1.829681,3.966125,13.112015
2019-01-28 22:54:15:5415,-0.604858,0.304916,0.274750,2.488907,2.056656,17.008728
2019-01-28 22:54:15:5415,-1.109604,-0.618866,0.469559,2.488907,2.056656,17.008728
2019-01-28 22:54:15:5415,-1.109604,-0.618866,0.469559,1.428894,0.567123,19.692276
2019-01-28 22:54:15:5415,-1.109604,-0.618866,0.469559,0.043442,1.637924,19.397964
2019-01-28 22:54:15:5415,-1.109604,-0.618866,0.469559,-0.479385,3.512695,16.003738
2019-01-28 22:54:15:5415,-1.109604,-0.618866,0.469559,-0.931641,4.721069,12.238647
2019-01-28 22:54:15:5415,-1.109604,-0.618866,0.469559,-0.075012,2.106903,14.801346
2019-01-28 22:54:15:5415,-1.109604,-0.618866,0.469559,2.441055,-2.214539,19.567856
2019-01-28 22:54:15:5415,-1.109604,-0.618866,0.469559,3.505859,-4.338165,19.213715
2019-01-28 22:54:15:5415,-1.109604,-0.618866,0.469559,3.021317,-4.426697,14.315613
2019-01-28 22:54:15:5415,-1.109604,-0.618866,0.469559,0.413132,-3.560501,7.753281
2019-01-28 22:54:16:5416,0.095444,0.213242,-0.193405,0.413132,-3.560501,7.753281
2019-01-28 22:54:16:5416,0.095444,0.213242,-0.193405,-0.544006,-2.342560,1.750900
2019-01-28 22:54:16:5416,0.095444,0.213242,-0.193405,0.023102,-0.910446,-1.851517
2019-01-28 22:54:16:5416,0.095444,0.213242,-0.193405,-0.167130,-0.101685,-2.848114
2019-01-28 22:54:16:5416,0.095444,0.213242,-0.193405,-1.260651,-0.331390,-1.966370
2019-01-28 22:54:16:5416,0.095444,0.213242,-0.193405,-2.514496,-1.586426,-1.328674
2019-01-28 22:54:16:5416,0.095444,0.213242,-0.193405,-1.319275,-2.572266,1.420685
2019-01-28 22:54:16:5416,0.095444,0.213242,-0.193405,0.768463,-3.365479,4.619888
2019-01-28 22:54:16:5416,0.095444,0.213242,-0.193405,1.634674,-2.874954,6.885895
2019-01-28 22:54:16:5416,0.095444,0.213242,-0.193405,1.040054,-1.418930,8.575226
2019-01-28 22:54:16:5416,0.095444,0.213242,-0.193405,-0.326263,-0.187820,11.347305
2019-01-28 22:54:16:5416,0.095444,0.213242,-0.193405,-0.444702,-0.089706,13.581009
2019-01-28 22:54:16:5416,0.095444,0.213242,-0.193405,1.060394,-0.314636,12.017303
2019-01-28 22:54:16:5416,0.095444,0.213242,-0.193405,2.124008,-0.873352,9.902039
2019-01-28 22:54:16:5416,0.095444,0.213242,-0.193405,1.730377,-0.874557,8.384995
2019-01-28 22:54:16:5416,0.095444,0.213242,-0.193405,0.974258,-0.142349,8.407730
2019-01-28 22:54:16:5416,0.095444,0.213242,-0.193405,0.474152,0.994247,9.180603
2019-01-28 22:54:16:5416,0.095444,0.213242,-0.193405,0.428680,1.770706,9.817093
2019-01-28 22:54:16:5416,0.095444,0.213242,-0.193405,-0.069031,2.664444,10.383011
2019-01-28 22:54:16:5416,0.095444,0.213242,-0.193405,0.309052,1.470413,13.352493
2019-01-28 22:54:16:5416,0.045395,0.274628,0.619827,0.309052,1.470413,13.352493
2019-01-28 22:54:16:5416,0.045395,0.274628,0.619827,2.320221,-1.569672,18.560471
2019-01-28 22:54:16:5416,0.045395,0.274628,0.619827,3.658997,-3.418121,22.652206
2019-01-28 22:54:16:5416,0.045395,0.274628,0.619827,3.386215,-2.752930,20.186401
2019-01-28 22:54:16:5416,0.045395,0.274628,0.619827,1.968475,-1.126999,15.332565
2019-01-28 22:54:16:5416,0.045395,0.274628,0.619827,-0.333435,0.376892,11.508820
2019-01-28 22:54:16:5416,0.045395,0.274628,0.619827,-1.243896,1.094742,8.140930
2019-01-28 22:54:16:5416,0.045395,0.274628,0.619827,-0.033127,0.287170,6.194366
2019-01-28 22:54:16:5416,0.045395,0.274628,0.619827,1.663376,-1.159302,4.962067
2019-01-28 22:54:16:5416,0.045395,0.274628,0.619827,2.917221,-2.204971,4.615097
2019-01-28 22:54:16:5416,0.045395,0.274628,0.619827,2.901672,-2.530396,5.470535
2019-01-28 22:54:16:5416,0.128845,-0.026703,-0.020401,2.901672,-2.530396,5.470535
2019-01-28 22:54:16:5416,0.128845,-0.026703,-0.020401,2.399170,-2.056610,6.706436
2019-01-28 22:54:16:5416,0.128845,-0.026703,-0.020401,1.431274,-0.935577,7.335739
2019-01-28 22:54:16:5416,0.128845,-0.026703,-0.020401,0.437057,0.634125,7.149094
2019-01-28 22:54:16:5416,0.128845,-0.026703,-0.020401,-0.356171,1.708511,7.164658
2019-01-28 22:54:16:5416,0.128845,-0.026703,-0.020401,-0.386078,1.558945,8.838440
2019-01-28 22:54:16:5416,0.128845,-0.026703,-0.020401,0.041046,0.445084,11.387985
2019-01-28 22:54:16:5416,0.128845,-0.026703,-0.020401,1.092697,-0.823120,13.236450
2019-01-28 22:54:16:5416,0.128845,-0.026703,-0.020401,2.796387,-1.469177,12.907425
2019-01-28 22:54:16:5416,0.128845,-0.026703,-0.020401,1.101074,-1.070770,9.847015
2019-01-28 22:54:16:5416,-0.324478,0.049149,-0.277817,1.101074,-1.070770,9.847015
2019-01-28 22:54:16:5416,-0.324478,0.049149,-0.277817,-0.203033,-0.874557,7.980606
2019-01-28 22:54:16:5416,-0.324478,0.049149,-0.277817,-0.634933,-1.350723,8.894669
2019-01-28 22:54:16:5416,-0.324478,0.049149,-0.277817,0.719421,-1.892700,10.460770
2019-01-28 22:54:16:5416,-0.324478,0.049149,-0.277817,2.107254,-2.076950,9.994171
2019-01-28 22:54:16:5416,-0.324478,0.049149,-0.277817,1.962494,-1.691711,10.306427
2019-01-28 22:54:16:5416,-0.324478,0.049149,-0.277817,1.729187,-1.357910,10.402145
2019-01-28 22:54:16:5416,-0.324478,0.049149,-0.277817,1.223099,-1.128204,10.278915
2019-01-28 22:54:16:5416,-0.324478,0.049149,-0.277817,0.220520,-0.518021,9.930756
2019-01-28 22:54:16:5416,-0.324478,0.049149,-0.277817,-0.499725,0.232132,8.936539
2019-01-28 22:54:16:5416,-0.324478,0.049149,-0.277817,-0.596649,0.498932,7.965057
2019-01-28 22:54:17:5417,0.528290,0.182571,-0.738953,-0.596649,0.498932,7.965057
2019-01-28 22:54:17:5417,0.528290,0.182571,-0.738953,0.146332,0.028732,7.887283
2019-01-28 22:54:17:5417,0.528290,0.182571,-0.738953,0.987411,-0.230896,7.966248
2019-01-28 22:54:17:5417,0.528290,0.182571,-0.738953,1.140549,0.247681,8.593170
2019-01-28 22:54:17:5417,0.528290,0.182571,-0.738953,1.342743,1.207199,9.728561
2019-01-28 22:54:17:5417,0.528290,0.182571,-0.738953,1.450424,1.450073,10.576813
